time_tick,gyr_X_value,gyr_Y_value,gyr_Z_value
-0.010097,-0.015008,-0.028760,-0.005519
-0.010097,-0.015008,-0.028760,-0.005519
0.019994,-0.006461,-0.022391,-0.003328
0.030003,-0.009650,-0.022405,0.002004
0.040044,-0.003253,-0.021358,0.002026
0.050053,-0.011799,-0.025577,-0.003358
0.060094,-0.002178,-0.018158,0.002045
0.070103,-0.010734,-0.028810,0.001970
0.080144,-0.006437,-0.018159,0.005237
0.090154,-0.007519,-0.021334,-0.000122
0.100194,-0.008579,-0.020273,0.002017
0.110234,-0.004322,-0.022423,0.002018
0.120244,-0.008601,-0.028822,0.003045
0.130284,-0.005384,-0.021351,0.002021
0.140294,-0.004326,-0.023486,0.000945
0.150334,-0.004319,-0.021355,0.002023
0.160344,-0.007522,-0.024558,0.004136
0.170384,-0.007519,-0.023490,0.004141
0.180394,-0.007521,-0.021329,-0.001190
0.190434,-0.006452,-0.021343,0.000949
0.200444,-0.001117,-0.020302,0.003106
0.210484,-0.008601,-0.027743,0.000913
0.220525,-0.006446,-0.020285,0.003091
0.230534,-0.006452,-0.020265,-0.001182
0.240575,-0.008586,-0.022404,0.000938
0.250584,-0.005384,-0.022429,0.004152
0.260625,-0.011794,-0.026670,0.001978
0.270634,-0.002184,-0.020294,0.002034
0.280675,-0.009645,-0.019192,-0.000117
0.290685,-0.001117,-0.020302,0.003106
0.300725,-0.010726,-0.026679,0.003049
0.310735,-0.009646,-0.022421,0.005208
0.320775,-0.008592,-0.024540,0.000928
0.330815,-0.004319,-0.021355,0.002023
0.340825,-0.002191,-0.023503,0.003087
0.350865,-0.007529,-0.025611,0.000926
0.360875,-0.008576,-0.019205,0.002022
0.370915,-0.007524,-0.022397,-0.001195
0.380925,-0.002178,-0.019236,0.004176
0.390965,-0.006462,-0.025620,0.001997
0.401002,-0.009658,-0.025614,0.003057
0.411042,-0.003247,-0.019222,0.002037
0.421052,-0.006449,-0.020275,0.000954
0.431092,-0.002181,-0.019226,0.002039
0.441133,-0.009665,-0.027745,0.001978
0.451142,-0.005383,-0.022434,0.005220
0.461183,-0.007522,-0.022402,-0.000127
0.471192,-0.006447,-0.020280,0.002023
0.481233,-0.005384,-0.022429,0.004152
0.491243,-0.009668,-0.028813,0.001973
0.501283,-0.009643,-0.020275,0.003082
0.511293,-0.007515,-0.020271,0.000952
0.521333,-0.002193,-0.023498,0.002019
0.531343,-0.008592,-0.025618,0.003060
0.541383,-0.006447,-0.021358,0.004154
0.551423,-0.005392,-0.022404,-0.001189
0.561433,-0.011779,-0.020253,-0.000128
0.571473,-0.001111,-0.018166,0.003116
0.581483,-0.007535,-0.027747,0.000916
0.591523,-0.006457,-0.024557,0.003071
0.601533,-0.006455,-0.021333,-0.001187
0.611573,-0.009646,-0.020265,0.000946
0.621583,-0.005387,-0.023497,0.004147
0.631623,-0.008596,-0.026681,0.001986
0.641633,-0.006443,-0.019217,0.003096
0.651673,-0.007518,-0.020261,-0.001185
0.661714,-0.002182,-0.020299,0.003103
0.671724,-0.010722,-0.024538,0.001991
0.681764,-0.007522,-0.024558,0.004136
0.691774,-0.008589,-0.024550,0.003065
0.701814,-0.012838,-0.019196,0.003078
0.721864,-0.011807,-0.029859,-0.001242
0.731874,-0.008580,-0.021346,0.003080
0.741914,-0.008567,-0.016001,0.002037
0.751924,-0.003260,-0.024567,0.003079
0.761964,-0.010712,-0.021339,0.003074
0.772004,-0.001115,-0.019229,0.002042
0.782014,-0.005384,-0.022429,0.004152
0.792054,-0.012835,-0.018128,0.003083
0.802064,0.003157,-0.016039,0.002069
0.812104,-0.004345,-0.030966,0.001978
0.822114,-0.014977,-0.021320,0.001994
0.832154,0.003178,-0.010720,0.006367
0.842164,-0.006478,-0.029876,-0.001227
0.852204,-0.003257,-0.023499,0.003084
0.862214,-0.007519,-0.022412,0.002010
0.872255,-0.000054,-0.021374,0.003103
0.882295,-0.005392,-0.024560,0.003074
0.892305,-0.007518,-0.021339,0.000946
0.902345,-0.005396,-0.025623,0.002000
0.912355,-0.007513,-0.022433,0.006282
0.922395,-0.007509,-0.018136,0.000962
0.932405,-0.006460,-0.025625,0.003066
0.942445,-0.005392,-0.023482,0.000942
0.952455,-0.006453,-0.022416,0.002013
0.962495,-0.001118,-0.021375,0.004169
0.972505,-0.011782,-0.022399,0.001998
0.982545,-0.009646,-0.020265,0.000946
0.992585,-0.009646,-0.020265,0.000946
1.002595,0.005278,-0.020323,0.003123
1.012635,-0.008584,-0.024565,0.006269
1.022645,-0.011788,-0.024534,0.001988
1.032685,-0.007504,-0.018151,0.004166
1.042695,-0.010746,-0.030925,-0.002312
1.052735,-0.005360,-0.014964,0.006324
1.062745,-0.007513,-0.019198,-0.000112
1.072786,-0.006465,-0.027766,0.004124
1.072786,-0.006465,-0.027766,0.004124
1.092836,-0.008589,-0.023472,0.000933
1.102876,-0.002169,-0.017110,0.006322
1.112886,-0.007524,-0.022397,-0.001195
1.122926,-0.005387,-0.023497,0.004147
1.132936,-0.004329,-0.024554,0.000940
1.142976,-0.009649,-0.022411,0.003072
1.152986,-0.000051,-0.021384,0.005240
1.163026,-0.009662,-0.025599,-0.000148
1.173036,-0.006447,-0.021358,0.004154
1.183076,-0.007526,-0.025621,0.003063
1.183076,-0.007526,-0.025621,0.003063
1.203126,-0.007516,-0.022422,0.004146
1.213166,-0.004324,-0.023491,0.002013
1.223176,-0.009653,-0.023473,0.001999
1.233216,-0.006450,-0.022426,0.004149
1.243226,-0.003247,-0.020300,0.004168
1.243226,-0.003247,-0.020300,0.004168
1.253266,-0.006450,-0.021348,0.002018
1.263276,-0.008583,-0.023492,0.005206
1.273317,-0.004329,-0.024554,0.000940
1.283326,-0.004305,-0.018166,0.005243
1.293367,-0.004321,-0.023501,0.004150
1.313417,-0.007517,-0.022417,0.003078
1.313417,-0.007517,-0.022417,0.003078
1.323457,-0.007517,-0.022417,0.003078
1.333467,-0.004308,-0.019234,0.005238
1.343507,-0.005381,-0.020283,0.002026
1.363557,-0.006454,-0.025621,0.000935
1.363557,-0.004332,-0.025621,0.000935
1.373567,-0.009644,-0.021348,0.004145
1.383607,-0.002182,-0.020299,0.003103
1.393640,-0.006453,-0.023494,0.004144
1.413690,-0.007525,-0.023470,-0.000132
1.413690,-0.007525,-0.023470,-0.000132
1.423730,-0.006442,-0.020295,0.005227
1.433770,-0.006443,-0.019217,0.003096
1.443780,-0.007520,-0.023485,0.003073
1.453820,-0.005389,-0.022414,0.000947
1.463830,-0.008587,-0.024555,0.004133
1.463830,-0.008587,-0.024555,0.004133
1.483880,-0.010712,-0.020261,0.000943
1.493921,-0.004326,-0.024564,0.003076
1.513971,-0.011780,-0.023482,0.005197
1.513971,-0.011780,-0.023482,0.005197
1.523980,-0.001108,-0.017099,0.003121
1.534021,-0.008593,-0.025613,0.001992
1.554071,-0.008596,-0.026681,0.001986
1.554071,-0.008596,-0.026681,0.001986
1.564111,-0.001103,-0.018192,0.008457
1.574121,-0.004320,-0.022428,0.003087
1.584161,-0.004315,-0.021365,0.004160
1.594171,-0.008589,-0.023472,0.000933
1.614221,-0.005362,-0.016037,0.007387
1.624261,-0.004312,-0.020297,0.004165
1.624261,-0.004312,-0.020297,0.004165
1.634271,-0.005385,-0.023502,0.005215
1.644311,-0.011791,-0.025602,0.001983
1.654351,-0.006430,-0.017101,0.007379
1.664361,-0.002171,-0.016027,0.003123
1.674402,-0.003242,-0.018160,0.003110
1.684411,-0.006457,-0.024557,0.003071
1.694452,-0.016054,-0.027745,0.006234
1.714502,0.013813,-0.017147,0.003162
1.714502,0.013813,-0.017147,0.003162
1.724511,-0.011795,-0.028821,0.005172
1.734552,-0.022440,-0.024520,0.006231
1.744592,-0.001093,-0.012837,0.005277
1.754602,0.027694,-0.008654,0.004308
1.764642,-0.029903,-0.025564,0.006206
1.774652,-0.018159,-0.015970,0.002011
1.784692,0.019184,-0.003291,0.005379
1.794702,0.008490,-0.016072,0.005289
1.804742,-0.029891,-0.021292,0.006226
1.814752,0.011719,-0.006486,0.008547
1.824792,-0.006423,-0.009586,-0.001131
1.834802,-0.005353,-0.012833,0.007402
1.844842,0.013855,-0.004352,0.007495
1.854882,-0.020274,-0.011707,0.005230
1.864892,-0.001038,0.004225,0.010699
1.874933,0.009582,-0.005386,0.003206
1.884942,-0.025588,-0.009584,0.011634
1.894983,0.018175,0.016998,0.006540
1.904992,-0.018150,-0.013844,0.004157
1.915033,-0.008474,0.008480,0.019245
1.925042,0.002127,-0.008611,0.012784
1.935083,-0.005293,0.008520,0.008571
1.945092,0.002210,0.018057,0.019319
1.955133,-0.021324,-0.012832,0.018040
1.965173,-0.002086,0.008480,0.014989
1.975183,0.008622,0.027678,0.012973
1.985223,0.001038,-0.022536,0.022329
1.995233,0.017151,0.023333,0.022590
2.015283,0.010607,-0.046193,0.050017
2.015283,0.010607,-0.046193,0.050017
2.025323,0.055451,-0.015354,0.047082
2.035333,0.001127,0.005189,0.031006
2.055383,0.043827,0.030686,0.030176
2.055383,0.043827,0.030686,0.030176
2.065423,-0.012694,0.021284,0.024635
2.075464,-0.009474,0.025510,0.032141
2.085473,0.019310,0.032932,0.023710
2.095514,-0.030793,0.026667,0.027815
2.115564,-0.041449,0.029926,0.023528
2.125573,0.009720,0.025417,0.038603
2.125573,0.009720,0.025417,0.038603
2.135614,-0.000970,0.019090,0.028929
2.145623,-0.026505,0.029806,0.038523
2.155664,0.033156,0.018913,0.042910
2.165674,-0.018013,0.019115,0.035292
2.175714,-0.032937,0.010554,0.049097
2.185754,0.018215,0.016871,0.033245
2.205804,0.007502,-0.007697,0.041645
2.215814,-0.003093,0.011530,0.048116
2.215814,-0.003093,0.011530,0.048116
2.225854,-0.015892,0.009446,0.045934
2.235864,0.014962,-0.016336,0.056579
2.245904,-0.013791,-0.006621,0.054409
2.255914,0.006451,-0.007739,0.051255
2.275964,-0.019132,-0.013031,0.058637
2.275964,-0.019132,-0.013031,0.058637
2.286004,0.009630,-0.016308,0.054428
2.296045,-0.026610,-0.019414,0.058586
2.306054,-0.015937,-0.013031,0.056510
2.316095,0.007493,-0.020593,0.058675
2.326104,-0.046870,-0.023625,0.059579
2.346154,-0.021282,-0.021583,0.061795
2.346154,-0.021282,-0.021583,0.061795
2.356195,-0.027676,-0.023718,0.066041
2.366205,-0.003174,-0.028069,0.066088
2.376245,-0.030889,-0.031198,0.069201
2.386255,-0.009552,-0.024870,0.071426
2.396304,-0.003169,-0.029163,0.071424
2.416354,0.007492,-0.030285,0.075721
2.416354,0.007492,-0.030285,0.075721
2.426394,-0.022352,-0.029105,0.072439
2.436404,-0.028722,-0.024853,0.080987
2.446444,0.011759,-0.031387,0.080000
2.456454,-0.041508,-0.021593,0.077763
2.466494,0.000068,-0.023914,0.088549
2.486544,-0.039359,-0.020577,0.087387
2.486544,-0.039359,-0.020577,0.087387
2.496554,0.000074,-0.020700,0.086428
2.506594,-0.039349,-0.015223,0.084208
2.516635,-0.011636,-0.018552,0.091746
2.526644,-0.007379,-0.018545,0.087485
2.536685,-0.053192,-0.015218,0.092716
2.556735,-0.033991,-0.011024,0.095993
2.556735,-0.033991,-0.011024,0.095993
2.566745,-0.041453,-0.012073,0.097036
2.576785,0.004394,-0.006892,0.099323
2.586795,-0.054235,-0.010978,0.100210
2.596835,0.003314,-0.014384,0.103558
2.606845,-0.029705,-0.007879,0.105634
2.626925,0.001204,-0.010136,0.109981
2.626925,0.001204,-0.010136,0.109981
2.636935,-0.040373,-0.012122,0.106652
2.646975,0.004393,-0.013350,0.109975
2.656985,-0.035026,-0.007887,0.110960
2.667025,-0.021194,-0.016476,0.110958
2.677035,-0.021174,-0.011151,0.114188
2.697085,-0.008396,-0.015465,0.114202
2.697085,-0.008396,-0.015465,0.114202
2.717135,-0.000943,-0.019776,0.117407
2.717135,-0.000943,-0.019776,0.117407
2.727175,-0.046753,-0.013224,0.118380
2.737216,-0.013712,-0.016566,0.124865
2.747225,-0.017992,-0.016501,0.114171
2.767276,-0.020126,-0.019719,0.118423
2.767276,-0.020126,-0.019719,0.118423
2.777316,-0.053141,-0.006761,0.110915
2.787326,-0.031832,-0.013273,0.118421
2.797366,-0.058474,-0.008884,0.111959
2.807376,-0.052066,-0.005716,0.115196
2.817416,-0.031801,-0.001521,0.117408
2.837466,-0.042469,-0.005763,0.118427
2.837466,-0.042469,-0.005763,0.118427
2.847506,-0.082935,0.008262,0.116245
2.857516,-0.028592,0.001663,0.119569
2.867556,-0.042437,0.001677,0.125940
2.877566,-0.056281,0.004916,0.128053
2.887606,-0.011534,-0.000564,0.127083
2.907656,-0.028572,-0.000554,0.136650
2.907656,-0.028572,-0.000554,0.136650
2.917666,-0.038159,0.003769,0.132371
2.927706,-0.044533,0.004802,0.144108
2.937716,-0.028573,0.001602,0.132387
2.947756,-0.075447,0.001688,0.146145
2.957797,-0.029640,-0.003775,0.140904
2.977847,-0.055205,-0.001581,0.146185
2.977847,-0.055205,-0.001581,0.146185
2.987857,-0.049888,-0.001563,0.138722
2.997897,-0.064795,-0.000482,0.146164
3.007907,-0.046697,-0.005860,0.141916
3.017947,-0.073326,-0.001517,0.145067
3.027957,-0.057360,-0.010118,0.146139
3.048007,-0.065885,-0.010095,0.147184
3.048007,-0.065885,-0.010095,0.147184
3.058047,-0.027521,-0.012361,0.148347
3.068087,-0.073327,-0.003668,0.148262
3.078097,-0.023248,-0.011327,0.152637
3.088137,-0.050954,-0.006945,0.148308
3.098147,-0.054149,-0.008017,0.151499
3.118197,-0.065890,-0.010080,0.143979
3.118197,-0.065890,-0.010080,0.143979
3.128237,-0.023245,-0.012415,0.156904
3.138247,-0.032837,-0.004842,0.143027
3.148287,-0.047760,-0.012330,0.155769
3.158297,-0.019008,-0.016655,0.147282
3.168338,-0.050959,-0.011237,0.152561
3.188388,-0.041374,-0.014477,0.153640
3.188388,-0.041374,-0.014477,0.153640
3.198428,-0.028592,-0.016649,0.152597
3.208438,-0.023278,-0.025235,0.157912
3.218478,-0.042460,-0.024105,0.157864
3.228488,0.004405,-0.030624,0.149417
3.238528,-0.037120,-0.023079,0.163225
3.258578,-0.032881,-0.029481,0.158933
3.258578,-0.032881,-0.029481,0.158933
3.268588,-0.027537,-0.023080,0.156842
3.278628,0.009730,-0.036017,0.156884
3.288668,-0.052086,-0.034738,0.154583
3.298678,-0.012637,-0.030604,0.156848
3.308718,-0.003043,-0.029562,0.155811
3.328768,0.005461,-0.035983,0.152599
3.328768,0.005461,-0.035983,0.152599
3.338778,-0.041436,-0.030440,0.141814
3.348818,-0.036097,-0.031566,0.150369
3.358828,-0.020126,-0.032645,0.141862
3.368869,-0.043578,-0.032554,0.138593
3.378878,-0.037180,-0.033663,0.142879
3.398976,-0.038253,-0.030405,0.132209
3.398976,-0.038253,-0.030405,0.132209
3.408986,-0.046789,-0.033576,0.131102
3.419026,-0.042502,-0.021817,0.125829
3.429036,-0.041467,-0.031417,0.122581
3.439076,-0.058514,-0.029226,0.122545
3.449086,-0.044672,-0.028152,0.111906
3.469136,-0.046807,-0.027057,0.107632
3.469136,-0.046807,-0.027057,0.107632
3.479176,-0.040434,-0.034548,0.106546
3.489186,-0.062809,-0.031267,0.105432
3.499226,-0.030832,-0.024917,0.095936
3.509266,-0.026577,-0.030291,0.100195
3.519276,-0.053234,-0.031242,0.093708
3.529316,-0.037242,-0.028080,0.091631
3.539326,-0.047915,-0.030151,0.085182
3.549366,-0.047928,-0.034418,0.084094
3.559376,-0.058603,-0.036483,0.076577
3.569417,-0.066069,-0.036444,0.073352
3.579426,-0.062903,-0.046051,0.070110
3.589467,-0.090626,-0.045920,0.061489
3.609517,-0.049067,-0.041723,0.048805
3.619557,-0.054399,-0.044929,0.053048
3.629567,-0.044828,-0.050280,0.048776
3.639607,-0.054425,-0.048078,0.041282
3.649617,-0.041636,-0.048119,0.041318
3.659657,-0.037361,-0.042783,0.039218
3.669667,-0.035255,-0.047016,0.029590
3.679707,-0.036339,-0.054498,0.031688
3.689717,-0.051252,-0.045856,0.021006
3.699757,-0.025666,-0.048115,0.029611
3.709767,-0.044887,-0.055478,0.018841
3.719807,-0.045946,-0.049031,0.011391
3.729847,-0.031027,-0.049075,0.010364
3.739857,-0.063032,-0.056411,0.002764
3.749898,-0.040623,-0.047956,0.006070
3.759907,-0.060899,-0.052116,-0.003620
3.769948,-0.059844,-0.053162,-0.008963
3.779957,-0.050237,-0.046775,-0.011042
3.789998,-0.066234,-0.047771,-0.015364
3.800007,-0.047068,-0.049929,-0.023867
3.820057,-0.048128,-0.045634,-0.028122
3.830098,-0.054562,-0.057340,-0.032468
3.840138,-0.042806,-0.044553,-0.034512
3.850148,-0.039650,-0.056280,-0.040968
3.860188,-0.050301,-0.053036,-0.042050
3.870198,-0.026846,-0.045597,-0.050496
3.890248,-0.027932,-0.048761,-0.057991
3.900288,-0.032209,-0.049780,-0.065486
3.910298,-0.033272,-0.048709,-0.065483
3.920338,-0.020476,-0.043385,-0.070764
3.930348,-0.039681,-0.047564,-0.077246
3.940388,-0.017288,-0.043365,-0.077164
3.960438,-0.004499,-0.040173,-0.083523
3.970479,-0.007732,-0.046514,-0.095312
3.980488,-0.015206,-0.050757,-0.096421
3.990529,0.002929,-0.043325,-0.099541
4.000538,-0.015227,-0.053920,-0.104982
4.010579,0.008244,-0.045453,-0.104877
4.020588,-0.006709,-0.055000,-0.108168
4.030629,0.007153,-0.053988,-0.105989
4.040638,0.012497,-0.045436,-0.111275
4.050679,-0.002462,-0.058193,-0.113513
4.060719,0.006079,-0.052881,-0.113464
4.070729,0.004993,-0.054968,-0.123091
4.080769,0.016717,-0.058240,-0.116665
4.100819,0.016724,-0.052875,-0.121980
4.110829,0.033753,-0.059318,-0.126236
4.120869,0.022065,-0.050777,-0.117683
4.130879,0.034818,-0.058243,-0.128365
4.140919,0.020972,-0.057150,-0.124125
4.150929,0.041224,-0.055065,-0.127264
4.160969,0.044422,-0.057232,-0.122993
4.171010,0.025229,-0.057144,-0.128386
4.181019,0.042293,-0.051850,-0.130450
4.191060,0.045509,-0.048687,-0.124017
4.201069,0.057200,-0.051853,-0.140023
4.211110,0.040152,-0.050734,-0.138997
4.221119,0.048688,-0.046485,-0.140021
4.231160,0.046550,-0.049687,-0.138974
4.241169,0.067892,-0.042301,-0.134607
4.251210,0.087072,-0.040192,-0.142022
4.261220,0.057226,-0.041163,-0.142109
4.271260,0.067901,-0.030478,-0.150575
4.281300,0.078552,-0.030492,-0.154818
4.291310,0.078549,-0.030482,-0.156954
4.301350,0.066841,-0.022954,-0.160156
4.311360,0.055105,-0.023953,-0.166602
4.321400,0.076469,-0.005862,-0.167526
4.331410,0.041262,-0.012100,-0.179403
4.341450,0.059366,-0.015342,-0.183641
4.351460,0.049804,-0.000325,-0.191074
4.361500,0.049784,-0.006727,-0.192173
4.371510,0.047647,-0.004549,-0.199646
4.381550,0.026344,0.004099,-0.207141
4.391591,0.040183,0.004104,-0.217785
4.401634,0.025248,0.000964,-0.221046
4.411675,0.008196,0.004249,-0.226418
4.421684,0.030576,0.005259,-0.229556
4.431725,0.019892,0.001068,-0.239220
4.451775,0.031587,-0.003186,-0.250958
4.461785,0.029451,-0.004242,-0.252037
4.471825,0.014517,-0.004153,-0.260624
4.481835,0.025160,-0.010606,-0.258488
4.491875,0.023050,0.000106,-0.263785
4.501915,0.035817,-0.004172,-0.271247
4.511925,0.024073,-0.012688,-0.269183
4.521965,0.015541,-0.009411,-0.278805
4.531975,0.024053,-0.012627,-0.282002
4.542015,0.013374,-0.022219,-0.278872
4.552025,0.019772,-0.011479,-0.295895
4.562065,-0.012268,-0.021938,-0.320602
4.572075,0.002672,-0.018813,-0.314136
4.592125,0.009076,-0.031791,-0.284270
4.602165,0.029315,-0.031821,-0.291692
4.612206,0.007983,-0.031701,-0.302432
4.622215,0.027166,-0.032837,-0.301316
4.632256,0.041022,-0.032882,-0.301278
4.642265,0.052745,-0.036149,-0.295920
4.652306,0.023931,-0.045631,-0.303522
4.662316,0.051665,-0.037178,-0.303406
4.672356,0.063386,-0.038284,-0.303379
4.682366,0.048458,-0.039293,-0.305561
4.692406,0.066565,-0.042546,-0.307663
4.702416,0.043106,-0.048898,-0.303485
4.712456,0.069771,-0.037196,-0.311901
4.732506,0.053772,-0.040338,-0.314097
4.742546,0.062293,-0.039273,-0.319409
4.752556,0.060168,-0.039286,-0.315143
4.762596,0.065486,-0.039268,-0.322605
4.772606,0.056976,-0.038218,-0.313010
4.782646,0.051622,-0.037041,-0.332247
4.792656,0.078276,-0.037158,-0.325765
4.802696,0.030304,-0.043430,-0.321654
4.812706,0.085751,-0.029687,-0.329981
4.822746,0.084699,-0.034036,-0.312913
4.832787,0.058007,-0.044573,-0.324787
4.832787,0.058007,-0.044573,-0.324787
4.852837,0.084672,-0.042569,-0.315090
4.872887,0.083563,-0.054278,-0.322626
4.882897,0.128368,-0.047013,-0.308581
4.892937,0.117642,-0.056458,-0.336429
4.902947,0.083583,-0.050031,-0.317265
4.912987,0.166723,-0.042785,-0.325547
4.922997,0.079255,-0.064892,-0.333371
4.933037,0.108095,-0.044721,-0.327854
4.933037,0.108095,-0.044721,-0.327854
4.953087,0.108046,-0.058568,-0.335397
4.963127,0.096336,-0.052112,-0.337536
4.973137,0.082419,-0.066953,-0.351531
4.983177,0.085642,-0.061659,-0.344020
4.983177,0.085642,-0.061659,-0.344020
5.003227,0.100540,-0.063788,-0.355739
5.033287,0.082402,-0.071209,-0.354756
5.033287,0.082402,-0.071209,-0.354756
5.053337,0.070675,-0.074390,-0.351599
5.063378,0.075982,-0.076493,-0.362276
5.073418,0.104759,-0.077664,-0.360066
5.083428,0.066400,-0.073263,-0.361219
5.083428,0.066400,-0.073263,-0.361219
5.093468,0.084486,-0.077528,-0.375076
5.103478,0.040809,-0.076373,-0.363441
5.113518,0.056776,-0.075286,-0.378347
5.123528,0.037617,-0.072071,-0.367702
5.133568,0.035454,-0.073041,-0.386941
5.143578,0.039739,-0.066662,-0.383694
5.173668,-0.012472,-0.062226,-0.382749
5.173668,-0.012472,-0.062226,-0.382749
5.183708,0.058948,-0.057108,-0.384664
5.193718,0.012012,-0.070829,-0.386995
5.203758,0.021643,-0.061289,-0.378378
5.213768,0.018416,-0.063339,-0.394419
5.233818,-0.003984,-0.073981,-0.387054
5.233818,-0.003984,-0.073981,-0.387054
5.243859,0.041864,-0.064493,-0.392224
5.263909,0.030115,-0.074071,-0.391233
5.263909,0.030115,-0.074071,-0.391233
5.273918,0.047169,-0.071976,-0.394381
5.283959,0.027954,-0.078280,-0.403010
5.314049,0.026902,-0.072932,-0.404055
5.314049,0.026902,-0.072932,-0.404055
5.324059,0.044991,-0.083670,-0.404056
5.334099,0.036466,-0.084726,-0.400880
5.344109,0.039646,-0.083602,-0.414753
5.354149,0.026857,-0.084639,-0.412657
5.384209,0.023649,-0.083520,-0.421206
5.384209,0.023649,-0.083520,-0.421206
5.394249,0.041738,-0.089946,-0.429732
5.414311,0.044931,-0.093175,-0.426534
5.414311,0.044931,-0.093175,-0.426534
5.424351,0.048103,-0.098490,-0.434028
5.444402,0.050231,-0.100643,-0.431895
5.444402,0.050231,-0.100643,-0.431895
5.454411,0.076901,-0.092191,-0.430714
5.464452,0.071537,-0.103911,-0.432920
5.474461,0.092875,-0.100817,-0.424301
5.484502,0.072611,-0.099633,-0.435033
5.494511,0.104614,-0.094442,-0.425307
5.514592,0.100342,-0.096554,-0.427465
5.514592,0.100342,-0.096554,-0.427465
5.524602,0.093939,-0.094352,-0.437086
5.534642,0.126974,-0.096600,-0.435937
5.544652,0.093939,-0.096508,-0.432823
5.554692,0.097145,-0.092237,-0.434931
5.564702,0.102481,-0.087967,-0.438100
5.594792,0.098215,-0.087943,-0.440248
5.594792,0.098215,-0.087943,-0.440248
5.604802,0.118489,-0.083778,-0.431627
5.614842,0.101414,-0.087959,-0.439172
5.624882,0.115288,-0.085908,-0.430578
5.634892,0.112107,-0.077334,-0.434819
5.654942,0.124902,-0.079547,-0.427316
5.654942,0.124902,-0.079547,-0.427316
5.664983,0.127031,-0.080622,-0.427316
5.674992,0.121721,-0.084972,-0.407055
5.685033,0.119573,-0.077374,-0.431594
5.695042,0.103560,-0.081548,-0.441272
5.705083,0.125953,-0.088119,-0.422013
5.735173,0.108904,-0.085923,-0.423118
5.735173,0.108904,-0.085923,-0.423118
5.745183,0.076926,-0.083653,-0.429605
5.755223,0.116344,-0.088037,-0.432721
5.765233,0.056661,-0.091078,-0.426491
5.775273,0.097232,-0.068813,-0.419865
5.795323,0.067304,-0.091067,-0.436076
5.795323,0.067304,-0.091067,-0.436076
5.805333,0.099368,-0.067757,-0.418786
5.815373,0.083320,-0.086903,-0.424262
5.825383,0.092945,-0.074109,-0.426311
5.835423,0.090798,-0.077285,-0.430605
5.845464,0.083332,-0.082631,-0.424241
5.875523,0.078027,-0.075148,-0.422084
5.875523,0.078027,-0.075148,-0.422084
5.885564,0.070558,-0.074021,-0.429577
5.895573,0.064180,-0.068665,-0.428501
5.905614,0.056728,-0.067593,-0.424244
5.915623,0.074835,-0.069768,-0.428477
5.935673,0.079116,-0.064452,-0.426303
5.935673,0.079116,-0.064452,-0.426303
5.945714,0.056726,-0.066510,-0.427443
5.955754,0.073786,-0.062279,-0.430581
5.965764,0.078046,-0.062283,-0.432705
5.975804,0.069523,-0.064421,-0.426330
5.985814,0.085531,-0.058076,-0.424119
6.015904,0.095148,-0.049568,-0.422984
6.015904,0.095148,-0.049568,-0.422984
6.025914,0.071706,-0.046278,-0.425170
6.035954,0.105812,-0.048545,-0.420813
6.045964,0.088755,-0.048475,-0.424065
6.056004,0.084514,-0.042068,-0.420842
6.086095,0.097314,-0.038911,-0.419723
6.086095,0.097314,-0.038911,-0.419723
6.096104,0.121851,-0.031525,-0.417484
6.106145,0.088766,-0.047432,-0.418719
6.116154,0.097337,-0.033597,-0.414357
6.126195,0.111196,-0.030423,-0.417508
6.136204,0.101580,-0.038935,-0.417575
6.146245,0.094168,-0.028292,-0.404726
6.156255,0.129335,-0.027313,-0.409966
6.166295,0.101600,-0.032533,-0.416476
6.176335,0.088845,-0.026139,-0.404731
6.186345,0.114409,-0.024021,-0.418537
6.196385,0.096283,-0.031478,-0.410077
6.216435,0.098412,-0.026089,-0.421796
6.216435,0.098412,-0.026089,-0.421796
6.226445,0.090978,-0.023995,-0.407920
6.236485,0.100532,-0.032524,-0.417547
6.246495,0.088849,-0.022920,-0.407920
6.256535,0.076029,-0.028168,-0.418663
6.266545,0.086678,-0.032484,-0.416517
6.286626,0.076003,-0.034550,-0.424034
6.296635,0.087747,-0.029264,-0.420772
6.306676,0.073865,-0.033445,-0.430444
6.316685,0.050425,-0.030160,-0.431562
6.326726,0.057875,-0.032305,-0.434756
6.336735,0.055737,-0.033356,-0.436903
6.356786,0.075996,-0.030218,-0.436832
6.356786,0.075996,-0.030218,-0.436832
6.366826,0.033327,-0.035348,-0.451929
6.376836,0.046155,-0.029048,-0.437977
6.386876,0.053581,-0.033273,-0.452932
6.396916,0.061049,-0.034395,-0.446507
6.406953,0.059981,-0.034387,-0.447578
6.437043,0.055653,-0.043863,-0.473272
6.437043,0.055653,-0.043863,-0.473272
6.447053,0.042903,-0.035328,-0.462585
6.457093,0.049264,-0.040628,-0.475411
6.467103,0.033262,-0.043760,-0.479743
6.477143,0.026877,-0.042691,-0.475483
6.497193,0.032173,-0.045836,-0.491506
6.497193,0.032173,-0.045836,-0.491506
6.507234,0.031086,-0.051152,-0.495807
6.517243,0.031062,-0.056462,-0.502242
6.527284,0.011855,-0.062792,-0.505529
6.537294,0.025709,-0.061754,-0.508691
6.547334,0.027822,-0.064934,-0.515109
6.567384,0.027807,-0.068118,-0.519397
6.577394,0.029915,-0.071283,-0.529020
6.587434,-0.002049,-0.074443,-0.516305
6.597444,0.050167,-0.077817,-0.516177
6.607484,0.068249,-0.078837,-0.538564
6.617524,0.036314,-0.081011,-0.508752
6.637574,0.069315,-0.080997,-0.534298
6.637574,0.069315,-0.080997,-0.534298
6.647584,0.055488,-0.077809,-0.521503
6.657624,0.120497,-0.078005,-0.524529
6.667634,0.099191,-0.075815,-0.521373
6.677674,0.086384,-0.083259,-0.519307
6.687684,0.127965,-0.079132,-0.517036
6.707734,0.125790,-0.089759,-0.526706
6.717774,0.157785,-0.083466,-0.524452
6.727815,0.116244,-0.073714,-0.525588
6.737825,0.091690,-0.086434,-0.528921
6.747865,0.132242,-0.070572,-0.523393
6.757875,0.143977,-0.074953,-0.508426
6.777925,0.091710,-0.071418,-0.542737
6.777925,0.091710,-0.071418,-0.542737
6.787965,0.107675,-0.077862,-0.545928
6.797975,0.098089,-0.082158,-0.534224
6.808015,0.132201,-0.082289,-0.529858
6.818025,0.137530,-0.069380,-0.553283
6.828065,0.121587,-0.069470,-0.523417
6.848115,0.151404,-0.075949,-0.528706
6.858155,0.159948,-0.069569,-0.528653
6.868165,0.241978,-0.078339,-0.537013
6.878205,0.190842,-0.077165,-0.524330
6.888215,0.252630,-0.080509,-0.536994
6.898255,0.233486,-0.073032,-0.524193
6.918305,0.310228,-0.068989,-0.528235
6.918305,0.310228,-0.068989,-0.528235
6.928315,0.177006,-0.069640,-0.525401
6.938356,0.226022,-0.067613,-0.535938
6.948365,0.243072,-0.066580,-0.540159
6.958406,0.138649,-0.059858,-0.535075
6.968446,0.227125,-0.049421,-0.544395
6.988496,0.137586,-0.050168,-0.551055
6.998506,0.193025,-0.045018,-0.548741
7.008546,0.114196,-0.030884,-0.547824
7.018556,0.160006,-0.033128,-0.556254
7.028596,0.174966,-0.020372,-0.554016
7.038606,0.115271,-0.023376,-0.555263
7.058656,0.138731,-0.017030,-0.558373
7.058656,0.138731,-0.017030,-0.558373
7.068696,0.137694,-0.006347,-0.558325
7.078736,0.181396,-0.010811,-0.547543
7.088746,0.134490,-0.009546,-0.557281
7.098786,0.139850,0.000033,-0.554016
7.108796,0.156895,-0.008616,-0.543328
7.138887,0.173943,-0.002193,-0.558205
7.138887,0.173943,-0.002193,-0.558205
7.148896,0.112227,0.027854,-0.546483
7.158937,0.107853,-0.005177,-0.559470
7.168946,0.095160,0.024721,-0.549750
7.178987,0.142030,0.019264,-0.557124
7.199037,0.047155,0.003472,-0.540369
7.209077,0.142005,0.008570,-0.553970
7.219087,0.054564,0.000381,-0.569205
7.229127,0.066257,-0.004946,-0.579880
7.239137,0.079109,0.000200,-0.547774
7.249177,0.060914,-0.004883,-0.589509
7.259187,0.051341,-0.005991,-0.574585
7.269227,0.070534,-0.000693,-0.578780
7.279237,0.052397,-0.005964,-0.580991
7.289277,0.081152,-0.009221,-0.589473
7.299317,0.065190,-0.012479,-0.567100
7.309327,0.096086,-0.002846,-0.592606
7.319367,0.052359,-0.019847,-0.581057
7.339418,0.062004,0.000423,-0.583071
7.349427,0.093893,-0.020959,-0.600176
7.359468,0.090710,-0.027457,-0.578851
7.369477,0.099236,-0.016709,-0.599072
7.379518,0.126948,-0.022190,-0.588340
7.389527,0.100214,-0.045522,-0.604547
7.409643,0.102309,-0.057261,-0.607802
7.419653,0.107656,-0.054105,-0.601363
7.429693,0.076727,-0.058245,-0.607877
7.439703,0.114025,-0.059430,-0.608848
7.449743,0.152379,-0.064894,-0.608767
7.459753,0.078850,-0.062534,-0.605755
7.469793,0.150216,-0.073405,-0.614155
7.479803,0.179025,-0.069293,-0.600169
7.489843,0.139614,-0.063850,-0.594911
7.499853,0.159818,-0.077774,-0.600262
7.509893,0.195017,-0.068282,-0.599052
7.519933,0.190761,-0.066137,-0.597985
7.529943,0.201399,-0.073647,-0.597991
7.539984,0.204641,-0.061951,-0.589381
7.549993,0.211050,-0.059861,-0.584013
7.560034,0.235547,-0.060968,-0.592496
7.570043,0.209972,-0.061973,-0.588298
7.580084,0.204618,-0.066187,-0.596879
7.590093,0.222771,-0.057738,-0.589311
7.600134,0.187555,-0.068252,-0.600140
7.610143,0.212067,-0.069405,-0.599010
7.620184,0.191815,-0.069334,-0.600134
7.630224,0.201368,-0.080014,-0.606567
7.640234,0.206717,-0.074707,-0.603323
7.650274,0.201365,-0.077848,-0.612966
7.660284,0.169394,-0.073447,-0.618375
7.670324,0.181087,-0.084159,-0.619461
7.680334,0.198130,-0.080950,-0.632218
7.690374,0.164007,-0.088325,-0.630210
7.700384,0.179994,-0.088377,-0.630166
7.710424,0.174662,-0.085120,-0.637643
7.720434,0.182096,-0.091522,-0.644062
7.730474,0.167165,-0.091443,-0.650513
7.740515,0.153332,-0.083928,-0.649447
7.760565,0.155458,-0.087148,-0.647320
7.770574,0.161846,-0.084993,-0.655838
7.780615,0.156504,-0.087091,-0.660135
7.790624,0.142680,-0.078528,-0.654792
7.800665,0.140512,-0.083790,-0.669778
7.810674,0.139485,-0.075294,-0.659058
7.820715,0.141612,-0.073129,-0.666520
7.830724,0.141600,-0.078479,-0.664409
7.840765,0.092563,-0.080441,-0.667758
7.850805,0.114971,-0.070902,-0.667651
7.860815,0.122433,-0.069853,-0.668694
7.870855,0.095791,-0.074084,-0.659173
7.880865,0.129895,-0.069882,-0.667605
7.900915,0.092563,-0.079362,-0.669889
7.910955,0.132038,-0.071003,-0.657990
7.920965,0.128817,-0.078458,-0.660171
7.931005,0.120293,-0.075206,-0.664452
7.941015,0.118184,-0.074192,-0.651635
7.951055,0.105356,-0.082648,-0.661324
7.961096,0.114981,-0.072010,-0.659111
7.971105,0.124564,-0.078474,-0.653774
7.981146,0.130946,-0.079533,-0.660170
7.991155,0.117104,-0.077377,-0.654857
8.001196,0.110679,-0.091265,-0.649600
8.011205,0.127743,-0.083814,-0.655926
8.021246,0.092575,-0.082632,-0.656018
8.041296,0.120281,-0.082707,-0.659146
8.051306,0.103199,-0.093331,-0.659244
8.061346,0.100026,-0.091245,-0.646424
8.071386,0.102122,-0.096526,-0.660330
8.081396,0.077643,-0.091167,-0.647554
8.091436,0.152255,-0.084967,-0.654796
8.111486,0.110679,-0.089109,-0.653862
8.111486,0.110679,-0.089109,-0.653862
8.121496,0.121336,-0.092372,-0.648507
8.131536,0.087185,-0.107197,-0.651876
8.141546,0.144803,-0.087124,-0.645213
8.151586,0.120249,-0.098766,-0.650677
8.161596,0.109589,-0.100878,-0.648580
8.181646,0.077630,-0.096512,-0.646511
8.191686,0.124535,-0.093466,-0.645299
8.201727,0.082968,-0.095482,-0.642219
8.211736,0.089357,-0.095482,-0.646474
8.221777,0.081880,-0.101871,-0.645457
8.231787,0.069095,-0.100766,-0.644418
8.241827,0.107469,-0.097677,-0.646434
8.251837,0.096801,-0.100841,-0.647547
8.261877,0.092534,-0.105124,-0.642238
8.271887,0.085092,-0.104083,-0.631571
8.281927,0.105355,-0.089106,-0.650672
8.291937,0.110690,-0.095607,-0.634665
8.301977,0.082984,-0.094454,-0.633668
8.312017,0.104350,-0.078525,-0.629261
8.322027,0.088310,-0.094462,-0.635790
8.332067,0.140583,-0.080784,-0.628103
8.342077,0.093625,-0.096589,-0.641126
8.352117,0.081908,-0.091186,-0.646474
8.362127,0.109677,-0.078537,-0.630314
8.372167,0.078693,-0.093276,-0.653970
8.382177,0.083022,-0.082727,-0.629340
8.392217,0.108583,-0.083828,-0.639956
8.402223,0.109642,-0.084889,-0.642095
8.412263,0.075543,-0.092340,-0.624065
8.422304,0.092585,-0.086975,-0.641084
8.432314,0.103262,-0.078451,-0.644218
8.442354,0.124558,-0.089229,-0.637801
8.452364,0.112830,-0.102103,-0.617599
8.462404,0.116050,-0.090335,-0.623943
8.472414,0.132041,-0.083939,-0.632414
8.482454,0.116029,-0.098889,-0.621847
8.492464,0.130973,-0.100086,-0.604720
8.502504,0.109668,-0.087126,-0.620741
8.512514,0.141628,-0.094726,-0.616416
8.522554,0.089443,-0.095756,-0.588791
8.532594,0.161897,-0.091618,-0.609936
8.542604,0.131005,-0.094802,-0.592945
8.552644,0.085151,-0.091343,-0.615488
8.562654,0.150245,-0.077803,-0.587470
8.572694,0.101166,-0.093638,-0.593022
8.582704,0.137452,-0.077752,-0.589642
8.592744,0.143846,-0.079923,-0.586430
8.602754,0.102293,-0.080907,-0.575867
8.612794,0.143871,-0.073541,-0.581058
8.622804,0.117209,-0.086325,-0.569442
8.632845,0.124770,-0.059737,-0.551136
8.642885,0.137464,-0.081021,-0.575770
8.652895,0.101291,-0.075721,-0.542731
8.662935,0.158878,-0.063087,-0.543580
8.672945,0.142861,-0.071559,-0.547937
8.682985,0.111990,-0.067267,-0.530911
8.692995,0.178092,-0.061090,-0.527494
8.703035,0.127985,-0.067345,-0.525526
8.713045,0.138683,-0.056735,-0.517969
8.723085,0.115239,-0.056669,-0.515897
8.733095,0.115247,-0.062080,-0.500967
8.753175,0.137666,-0.053655,-0.491251
8.763185,0.131341,-0.038774,-0.471971
8.763185,0.131341,-0.038774,-0.471971
8.783235,0.119596,-0.047284,-0.470975
8.793275,0.101598,-0.027142,-0.427133
8.803285,0.149508,-0.038985,-0.439875
8.803285,0.149508,-0.038985,-0.439875
8.823335,0.131457,-0.030524,-0.409975
8.833376,0.140000,-0.032758,-0.395007
8.843385,0.140000,-0.031758,-0.382178
8.843385,0.142154,-0.031758,-0.382178
8.853426,0.140072,-0.020060,-0.370378
8.863466,0.157098,-0.035112,-0.360788
8.893526,0.112372,-0.042624,-0.322491
8.893526,0.112372,-0.042624,-0.322491
8.903566,0.153986,-0.031062,-0.311640
8.913576,0.085820,-0.025597,-0.291506
8.923616,0.128368,-0.055633,-0.292599
8.933626,0.159377,-0.031277,-0.269965
8.953676,0.120961,-0.056853,-0.255238
8.963716,0.133803,-0.041979,-0.247654
8.973756,0.062393,-0.043898,-0.244656
8.983766,0.124249,-0.049611,-0.208193
8.993806,0.123174,-0.039885,-0.231651
9.003816,0.060326,-0.039787,-0.209391
9.023866,0.081609,-0.054832,-0.204063
9.023866,0.081609,-0.054832,-0.204063
9.033907,0.051788,-0.046187,-0.205172
9.043916,0.070990,-0.044149,-0.197632
9.053957,0.057098,-0.056914,-0.198799
9.063966,0.034771,-0.039780,-0.193439
9.074007,0.078447,-0.045241,-0.197617
9.104097,0.037853,-0.063123,-0.227723
9.104097,0.037853,-0.063123,-0.227723
9.114107,0.002768,-0.051433,-0.191446
9.124147,0.028374,-0.052680,-0.171085
9.134157,0.001683,-0.063217,-0.182959
9.144197,-0.013193,-0.054696,-0.168005
9.174257,-0.001446,-0.052654,-0.156212
9.174257,-0.001446,-0.052654,-0.156212
9.184297,-0.003556,-0.036557,-0.171097
9.194307,-0.003580,-0.052637,-0.158354
9.204347,0.013498,-0.045232,-0.155068
9.214387,0.000731,-0.032335,-0.163588
9.234438,-0.001413,-0.036600,-0.163614
9.234438,-0.001413,-0.036600,-0.163614
9.244447,-0.021586,-0.019543,-0.143293
9.254488,-0.016335,-0.038702,-0.160460
9.264497,-0.009899,-0.031313,-0.146521
9.274538,-0.007726,-0.016369,-0.146444
9.284547,-0.017358,-0.022675,-0.161455
9.314638,-0.010925,-0.018510,-0.143258
9.314638,-0.010925,-0.018510,-0.143258
9.324678,-0.002406,-0.019590,-0.146445
9.334688,-0.000276,-0.020670,-0.145376
9.344728,-0.023724,-0.023823,-0.140114
9.354738,-0.001381,-0.030238,-0.153970
9.384828,0.028495,-0.023978,-0.143175
9.384828,0.028495,-0.023978,-0.143175
9.394838,0.019976,-0.029361,-0.128269
9.404897,-0.009903,-0.038840,-0.135874
9.414907,0.030623,-0.034745,-0.126129
9.424947,0.019982,-0.032610,-0.118671
9.444997,-0.007768,-0.048554,-0.115618
9.444997,-0.007768,-0.048554,-0.115618
9.455038,0.039178,-0.033786,-0.109009
9.465047,0.041289,-0.034805,-0.120759
9.475088,0.026358,-0.046574,-0.105901
9.485097,0.018933,-0.035891,-0.101598
9.495138,0.031723,-0.037011,-0.099431
9.515188,0.046676,-0.029619,-0.091877
9.515188,0.046676,-0.029619,-0.091877
9.525198,0.028505,-0.050939,-0.087756
9.535238,0.007209,-0.043394,-0.087779
9.545278,0.025337,-0.042406,-0.083451
9.555288,0.025343,-0.038114,-0.087704
9.565328,0.029635,-0.034989,-0.073790
9.585378,0.018985,-0.031746,-0.074873
9.585378,0.018985,-0.031746,-0.074873
9.595388,0.029648,-0.028567,-0.076965
9.605428,0.007209,-0.049858,-0.076059
9.615438,-0.009813,-0.036972,-0.079250
9.625478,0.025383,-0.031777,-0.072719
9.635488,-0.001279,-0.037025,-0.073885
9.655569,-0.017283,-0.043380,-0.073960
9.655569,-0.017283,-0.043380,-0.073960
9.665578,-0.003383,-0.030641,-0.067452
9.675619,0.009390,-0.028476,-0.082361
9.685628,0.012616,-0.027499,-0.065256
9.695669,-0.005527,-0.027364,-0.081329
9.705678,-0.002326,-0.032770,-0.069595
9.725729,0.000894,-0.015618,-0.085528
9.735769,0.016889,-0.023236,-0.066292
9.745779,0.005138,-0.026341,-0.079158
9.755819,-0.014026,-0.018803,-0.079176
9.765859,0.012667,-0.008271,-0.066233
9.775869,-0.004448,-0.019867,-0.086632
9.795919,-0.005477,-0.009209,-0.081243
9.805959,-0.005491,-0.015627,-0.079137
9.815969,-0.014997,0.004598,-0.058771
9.826009,-0.022559,-0.012292,-0.095191
9.836019,-0.008656,-0.006026,-0.074827
9.846059,-0.008607,0.009978,-0.071547
9.866109,-0.028909,-0.012413,-0.065300
9.866109,-0.028909,-0.012413,-0.065300
9.876150,-0.008642,0.001470,-0.079065
9.886159,0.016933,-0.005061,-0.070479
9.896200,-0.005473,-0.013532,-0.070581
9.906209,-0.032138,-0.018765,-0.074953
9.916250,0.027584,-0.011539,-0.063003
9.936300,-0.023629,-0.020893,-0.082417
9.936300,-0.023629,-0.020893,-0.082417
9.946310,0.010538,-0.010425,-0.060908
9.956350,-0.011916,-0.029515,-0.073879
9.966360,-0.000154,-0.022133,-0.062062
9.976400,0.025434,-0.014705,-0.069433
9.986440,0.012606,-0.030698,-0.066340
10.006490,0.032882,-0.025459,-0.058781
10.016500,0.017935,-0.033949,-0.059931
10.026540,0.021130,-0.033949,-0.062059
10.036550,0.079803,-0.021385,-0.049018
10.046590,0.024291,-0.042463,-0.070636
10.056600,0.019001,-0.039338,-0.050340
10.076650,0.022181,-0.040371,-0.059950
10.086690,0.027538,-0.032938,-0.054559
10.096700,0.008334,-0.036044,-0.062104
10.106740,0.037120,-0.037246,-0.053484
10.116781,0.001958,-0.035006,-0.051434
10.126791,0.018958,-0.047821,-0.063198
10.146841,-0.005576,-0.055216,-0.063301
10.146841,-0.005576,-0.055216,-0.063301
10.156881,0.008338,-0.045751,-0.041854
10.166891,0.033947,-0.029770,-0.051321
10.176931,0.013640,-0.051068,-0.050410
10.186941,0.014745,-0.043656,-0.037553
10.196981,0.029657,-0.044753,-0.041790
10.217031,0.022200,-0.044738,-0.039674
10.227071,0.021164,-0.044831,-0.019381
10.237081,0.055277,-0.034192,-0.034192
10.247121,0.049957,-0.041746,-0.013946
10.257131,0.031830,-0.043813,-0.016142
10.267171,0.058489,-0.031019,-0.029895
10.287221,0.047848,-0.034269,-0.012848
10.297231,0.022258,-0.037384,-0.014002
10.307271,0.013745,-0.037397,-0.005480
10.317281,0.041462,-0.032122,-0.010719
10.327322,0.028684,-0.031038,-0.005409
10.337362,-0.006533,-0.042631,-0.014106
10.357412,0.016963,-0.032088,-0.001173
10.357412,0.016963,-0.032088,-0.001173
10.367422,-0.005440,-0.034101,-0.011927
10.377462,0.008429,-0.032035,-0.006538
10.387472,0.003070,-0.044848,-0.003408
10.397512,0.024416,-0.033165,-0.004362
10.407548,0.005213,-0.040583,-0.003382
10.427598,0.006305,-0.035283,0.004123
10.437638,0.008420,-0.042780,0.007298
10.447678,0.031904,-0.021427,-0.007491
10.457688,0.035091,-0.030021,0.001023
10.467728,0.032973,-0.026826,0.004237
10.477738,0.028703,-0.024636,-0.004310
10.507828,0.026551,-0.027797,-0.011808
10.507828,0.026551,-0.027797,-0.011808
10.517838,0.012792,-0.005437,0.011760
10.527879,0.010610,-0.017116,-0.001120
10.537888,0.034105,-0.009803,0.017139
10.547929,0.006331,-0.019208,-0.007551
10.557969,0.004251,-0.013978,0.017037
10.567979,0.041565,-0.003364,0.005440
10.578019,-0.009606,-0.015006,0.018062
10.588029,0.025571,-0.004365,0.002186
10.598069,0.020249,-0.008680,0.014970
10.608079,0.022414,-0.000174,0.021425
10.618119,0.004228,-0.012829,-0.000049
10.638169,0.007499,0.007396,0.011806
10.638169,0.007499,0.007396,0.011806
10.648179,0.040491,-0.008721,0.009685
10.658219,-0.011700,0.001040,0.013859
10.668259,0.028796,0.004153,0.005440
10.678269,-0.000016,-0.018261,0.022346
10.688309,0.001112,0.012776,0.007541
10.718369,0.010679,-0.000100,0.013916
10.718369,0.010679,-0.000100,0.013916
10.728410,0.022400,-0.002284,0.016074
10.738419,0.012788,-0.005422,0.008555
10.748460,0.014943,-0.009812,0.032041
10.758469,0.025566,-0.006506,0.003245
10.778550,0.040492,-0.003335,0.000096
10.788560,-0.044795,-0.022377,0.020066
10.798600,-0.001043,-0.012994,0.038391
10.808610,0.035113,-0.016088,-0.009593
10.818650,-0.035135,-0.022621,0.064957
10.828660,0.060728,-0.011975,0.006520
10.858750,0.014796,-0.042740,-0.005502
10.858750,0.014796,-0.042740,-0.005502
10.868760,0.017063,-0.027017,0.055466
10.878800,0.006302,-0.039585,0.010512
10.888840,0.006314,-0.036391,0.012664
10.898850,0.045827,-0.031382,0.055525
10.918900,0.026648,-0.031335,0.058677
10.928941,0.019111,-0.039687,0.023366
10.938950,0.015956,-0.031194,0.036216
10.948991,0.029819,-0.030186,0.039464
10.959000,0.005249,-0.039622,0.019055
10.969041,0.010697,-0.009853,0.043780
10.989091,0.002133,-0.018324,0.034102
10.999100,-0.022449,-0.039572,0.027524
11.009141,0.003222,-0.016247,0.045865
11.019181,0.028757,-0.017266,0.018157
11.029191,-0.028796,-0.031084,0.043570
11.039231,0.005357,-0.008723,0.034156
11.049241,-0.018170,-0.032095,0.024367
11.059281,0.017130,0.002931,0.045994
11.069291,-0.003330,-0.045890,-0.004499
11.079331,-0.023346,-0.002399,0.071494
11.089341,0.039345,-0.038624,0.010608
11.099381,-0.071400,-0.021339,0.044567
11.109391,0.029892,0.000824,0.031065
11.129472,-0.018108,-0.011825,0.028736
11.129472,-0.018108,-0.011825,0.028736
11.139481,-0.005345,-0.024707,0.034051
11.149522,0.011761,-0.009852,0.042714
11.159531,0.013835,-0.022603,0.027705
11.169572,-0.007449,-0.015094,0.035159
11.179581,-0.004280,-0.022554,0.029791
11.199631,-0.019161,-0.011862,0.037278
11.209672,0.011735,-0.015156,0.035212
11.219682,0.005347,-0.016234,0.041598
11.229722,-0.008535,-0.018259,0.027664
11.239762,-0.034134,-0.021344,0.020101
11.249772,-0.017026,-0.017264,0.049009
11.279862,0.008517,-0.020465,0.030905
11.289872,-0.030939,-0.029963,0.033956
11.299912,-0.005325,-0.017231,0.034087
11.309922,-0.016028,-0.033211,0.032913
11.319962,-0.000031,-0.031142,0.036172
11.340012,-0.012839,-0.032118,0.025450
11.340012,-0.012839,-0.032118,0.025450
11.350053,0.005325,-0.029089,0.050083
11.360062,0.019205,-0.010898,0.033116
11.370103,-0.023495,-0.035322,0.032883
11.380112,-0.002119,-0.019423,0.043699
11.390153,0.020271,-0.011980,0.035250
11.410240,0.002168,-0.009816,0.041620
11.420250,-0.013887,-0.026785,0.027608
11.430290,0.006398,-0.024806,0.046902
11.440300,-0.035209,-0.027773,0.025408
11.450340,-0.019203,-0.021423,0.026551
11.460380,0.009607,-0.020544,0.046931
11.470390,-0.016017,-0.026783,0.028671
11.480430,0.001051,-0.029040,0.042594
11.490440,-0.016043,-0.037472,0.030757
11.500480,0.002145,-0.023749,0.052236
11.510490,0.021269,-0.031161,0.025549
11.520530,-0.015990,-0.025791,0.044699
11.530540,-0.002198,-0.036409,0.022254
11.550590,-0.020269,-0.032190,0.045725
11.560630,-0.017118,-0.033131,0.016887
11.570671,-0.018106,-0.017215,0.039392
11.580680,-0.026729,-0.041659,0.020025
11.590721,-0.056531,-0.041688,0.046648
11.600730,-0.022408,-0.018158,0.015875
11.630821,-0.024547,-0.032130,0.036099
11.630821,-0.024547,-0.032130,0.036099
11.640831,-0.028808,-0.027814,0.029699
11.650871,-0.019235,-0.025629,0.012644
11.660881,-0.026673,-0.028909,0.033972
11.670921,-0.011764,-0.029995,0.027599
11.680961,-0.044815,-0.036316,0.031751
11.690971,0.005303,-0.018248,0.015952
11.701011,-0.006424,-0.025741,0.027634
11.711021,-0.011748,-0.023583,0.026561
11.721061,-0.024559,-0.029939,0.024359
11.731071,0.003155,-0.030039,0.026572
11.741111,0.019168,-0.023709,0.031987
11.761161,0.021340,-0.013072,0.039521
11.771171,-0.026743,-0.042691,0.012543
11.781211,-0.016000,-0.019297,0.026570
11.791221,-0.022383,-0.015005,0.026572
11.801261,-0.025634,-0.023442,0.006228
11.811302,-0.038339,-0.011820,0.041498
11.831352,-0.011701,-0.009730,0.033036
11.841362,-0.067243,-0.029633,-0.011008
11.851402,-0.059701,-0.016989,0.020051
11.861412,-0.033112,-0.030903,0.008308
11.871452,-0.070417,-0.029699,0.005006
11.881462,-0.036268,-0.017020,0.010501
11.901512,-0.024543,-0.026755,0.028647
11.911552,-0.012920,-0.040479,-0.013046
11.921592,-0.023515,-0.035257,0.018996
11.931602,-0.001158,-0.035253,0.003035
11.941642,0.000987,-0.030994,0.004129
11.951652,-0.037410,-0.051246,0.022087
11.971702,-0.002255,-0.051309,0.011501
11.981742,-0.011767,-0.025678,0.018006
11.991752,-0.018248,-0.038311,-0.016255
12.001792,-0.032052,-0.039506,0.020021
12.011802,0.012716,-0.020277,-0.011811
12.021843,-0.012860,-0.032052,0.011563
12.041893,-0.047024,-0.039295,-0.014203
12.051933,-0.003220,-0.017152,0.015933
12.061943,0.003035,-0.047971,-0.020515
12.071983,-0.061853,-0.020151,0.012552
12.081993,0.030840,-0.023585,-0.002163
12.092033,-0.038511,-0.043590,-0.015268
12.102043,-0.022383,-0.015005,0.026572
12.112083,0.015839,-0.039439,-0.026848
12.122093,-0.014944,-0.017114,0.015901
12.132133,-0.006459,-0.023474,-0.000129
12.142173,-0.015001,-0.025551,-0.006572
12.152183,0.019204,-0.001201,0.015002
12.162223,-0.012887,-0.025503,-0.018316
12.182273,0.013798,-0.013867,-0.012846
12.192283,-0.004295,-0.014967,0.006327
12.202323,0.014859,-0.019241,-0.006459
12.212333,-0.025646,-0.021250,-0.005512
12.222374,0.029836,-0.007618,0.009660
12.232383,-0.011857,-0.037243,-0.020505
12.242424,-0.013853,-0.008579,0.017013
12.252464,0.010544,-0.028757,-0.023608
12.262474,-0.037348,-0.022356,0.010473
12.272514,0.008414,-0.037375,-0.006563
12.282524,-0.001116,-0.023536,0.009499
12.292564,0.014837,-0.033174,0.004157
12.302574,0.024418,-0.033170,-0.003294
12.322624,-0.002233,-0.037376,0.000885
12.332664,0.022309,-0.028927,0.004198
12.342674,0.022315,-0.026791,0.004208
12.352714,0.017001,-0.021434,0.004218
12.362754,0.023405,-0.015022,-0.001075
12.372764,0.000993,-0.029936,0.006270
12.392814,0.012748,-0.018222,0.005290
12.402854,0.002066,-0.026730,0.005220
12.412883,0.006292,-0.028779,-0.016142
12.422924,-0.019199,-0.010662,0.009510
12.432933,0.002035,-0.029863,-0.009750
12.442974,-0.022482,-0.031925,-0.008759
12.452983,-0.004278,-0.010711,0.009551
12.452983,-0.004278,-0.010711,0.009551
12.473033,-0.013839,-0.003240,0.017038
12.483074,0.025474,-0.028836,-0.017157
12.493114,0.010608,-0.024653,0.011663
12.503124,0.014842,-0.023497,-0.009684
12.513164,0.027668,-0.015036,-0.001063
12.533214,-0.002237,-0.027668,-0.019365
12.533214,-0.002237,-0.027668,-0.019365
12.553264,0.028680,-0.031028,-0.007545
12.563274,-0.003259,-0.021338,-0.002246
12.573314,0.031906,-0.027895,0.005297
12.573314,0.031906,-0.027895,0.005297
12.593364,-0.026724,-0.034133,0.009379
12.613414,-0.006553,-0.052262,-0.009879
12.613414,-0.006553,-0.052262,-0.009879
12.633464,-0.019354,-0.050029,-0.021654
12.633464,-0.019354,-0.050029,-0.021654
12.643505,-0.008635,-0.044871,0.009378
12.653514,0.049991,-0.030004,-0.012822
12.663555,-0.022550,-0.062950,0.002845
12.703655,0.027589,-0.037407,-0.012919
12.703655,0.027589,-0.037407,-0.012919
12.713695,0.007364,-0.037422,0.004116
12.723705,0.029770,-0.022488,-0.007502
12.733745,0.010528,-0.054560,0.012590
12.753795,-0.028916,-0.031782,-0.034413
12.753795,-0.028916,-0.031782,-0.034413
12.763805,-0.008578,-0.031048,0.022262
12.773845,0.050022,-0.017174,-0.015966
12.783855,-0.051217,-0.025500,0.007215
12.793895,0.037216,-0.017082,-0.026683
12.803905,-0.028868,-0.035163,0.002959
12.823986,0.026549,-0.019173,-0.028859
12.833995,-0.049123,-0.031853,-0.005628
12.844036,0.031954,-0.003272,-0.007405
12.854045,0.002073,-0.020287,-0.002227
12.864086,0.005264,-0.022434,-0.002228
12.874095,0.004190,-0.021327,-0.009703
12.904186,0.011652,-0.025663,-0.001157
12.904186,0.011652,-0.025663,-0.001157
12.914196,0.035142,-0.010794,0.000046
12.924236,-0.019267,-0.026606,-0.006588
12.934276,0.022349,-0.009664,-0.004257
12.944286,0.021271,-0.010698,-0.010674
12.964336,0.014838,-0.026716,-0.006495
12.974376,-0.016102,-0.038363,-0.006635
12.984386,0.042709,0.019008,0.016231
12.994426,0.000888,-0.048992,-0.029071
13.004436,-0.019201,-0.002038,-0.007540
13.014476,0.012718,-0.021360,-0.008612
13.044567,-0.006427,-0.006341,-0.009662
13.044567,-0.006427,-0.006341,-0.009662
13.054576,0.023413,-0.008584,-0.007453
13.064617,-0.006491,-0.025529,-0.017230
13.074626,-0.012845,-0.014864,-0.009720
13.084667,0.030846,-0.013908,-0.016004
13.104717,0.034012,-0.021358,-0.023508
13.114727,-0.013912,-0.015933,-0.008660
13.124767,0.005262,-0.020273,-0.007559
13.134777,-0.009634,-0.010608,-0.008623
13.144817,0.013798,-0.012789,-0.014977
13.154857,-0.017080,-0.010629,0.000971
13.184917,0.012737,-0.007416,-0.021364
13.184917,0.012737,-0.007416,-0.021364
13.194957,-0.005413,-0.020182,-0.019338
13.204967,-0.016008,-0.005267,-0.004342
13.215007,-0.031079,-0.044601,-0.032343
13.225017,0.009614,0.000976,0.012850
13.255107,-0.022479,-0.030857,-0.008754
13.255107,-0.022479,-0.030857,-0.008754
13.265117,-0.019282,-0.029789,-0.010876
13.275157,0.000997,-0.018098,-0.012901
13.285198,0.013776,-0.020260,-0.016081
13.295207,-0.005427,-0.029834,-0.010838
13.325298,-0.010730,-0.023434,-0.005482
13.325298,-0.010730,-0.023434,-0.005482
13.335308,-0.004392,-0.035127,-0.021543
13.345348,-0.013950,-0.031973,-0.004463
13.355358,-0.005457,-0.031894,-0.026871
13.365398,0.012704,-0.022392,-0.016094
13.385448,-0.012917,-0.032948,-0.024760
13.385448,-0.012917,-0.032948,-0.024760
13.395488,-0.026770,-0.035064,-0.019468
13.405516,0.004138,-0.029779,-0.028971
13.415556,-0.005425,-0.036302,0.001950
13.425566,-0.017199,-0.039336,-0.025871
13.435606,-0.034206,-0.024345,-0.022642
13.465666,-0.018211,-0.024423,-0.017257
13.465666,-0.018211,-0.024423,-0.017257
13.475706,-0.018230,-0.028674,-0.021550
13.485716,-0.005443,-0.030862,-0.019389
13.495756,-0.024616,-0.028679,-0.016227
13.505797,-0.006454,-0.010562,-0.020364
13.535857,-0.040598,-0.024335,-0.020523
13.535857,-0.040598,-0.024335,-0.020523
13.545897,-0.005375,-0.007377,-0.017141
13.555907,-0.043793,-0.026485,-0.015201
13.565947,-0.036345,-0.022162,-0.031183
13.575957,-0.022395,-0.003116,-0.003281
13.606047,-0.028795,-0.000924,-0.010766
13.606047,-0.028795,-0.000924,-0.010766
13.616087,0.014827,-0.020218,-0.025692
13.626097,-0.006477,-0.024496,-0.009748
13.636137,-0.022436,-0.007297,-0.022529
13.646147,0.011659,-0.010606,-0.023519
13.666197,0.001024,0.002284,-0.032033
13.666197,0.001024,0.002284,-0.032033
13.676237,-0.021318,-0.003155,0.004199
13.686247,-0.014982,-0.004066,-0.033175
13.696287,-0.026687,0.001296,-0.029978
13.706297,-0.025547,0.012908,-0.002146
13.716338,-0.011811,-0.009381,-0.040669
13.746428,-0.045915,-0.013582,-0.032238
13.746428,-0.045915,-0.013582,-0.032238
13.756438,-0.029735,0.029918,0.017151
13.766478,0.004088,-0.027466,-0.066348
13.776488,-0.078800,0.019428,0.010556
13.786528,0.052179,-0.009720,-0.012720
13.816588,-0.007509,-0.003053,-0.026741
13.816588,-0.007509,-0.003053,-0.026741
13.826628,0.004260,-0.000004,-0.002125
13.836668,0.013820,0.002222,-0.027725
13.846678,-0.014970,-0.009492,-0.015041
13.856718,0.020256,0.008533,-0.011654
13.876768,0.020234,-0.001093,-0.008495
13.876768,0.020234,-0.001093,-0.008495
13.886778,-0.010696,-0.007385,-0.011815
13.896819,-0.001056,0.007514,-0.007445
13.906828,0.016959,-0.021303,-0.023555
13.916869,-0.026633,0.002202,0.004210
13.926878,-0.013915,-0.009460,-0.022516
13.946928,-0.048087,-0.033917,-0.021658
13.956969,-0.013808,0.023595,-0.011677
13.967009,-0.013963,-0.024391,-0.026859
13.977019,-0.026684,-0.010562,-0.006533
13.987059,-0.020330,-0.013686,-0.027894
13.997069,-0.029870,-0.003046,-0.012916
14.017119,-0.026739,-0.021161,-0.023675
14.027159,-0.005317,0.004289,0.000006
14.037169,-0.001084,0.001137,-0.013884
14.047209,-0.010753,-0.021208,-0.024699
14.057219,0.019258,0.013709,0.023619
14.067259,0.008445,-0.011618,-0.033146
14.087309,-0.017036,-0.003229,0.017029
14.087309,-0.017036,-0.003229,0.017029
14.097350,0.003165,0.001169,-0.023486
14.107359,0.037424,0.031810,0.022686
14.117400,0.009536,-0.004161,-0.029903
14.127409,0.010690,0.006327,0.009673
14.137450,-0.002122,0.005362,-0.003185
14.157500,0.022400,0.010642,-0.007365
14.167509,0.008543,0.004229,0.003248
14.177550,0.010661,0.002111,-0.002097
14.187590,0.007452,0.001079,-0.007452
14.197600,-0.004281,-0.004238,-0.004305
14.207640,0.046945,0.009383,0.016197
14.237700,0.022318,-0.021416,-0.003244
14.237700,0.022318,-0.021416,-0.003244
14.247740,-0.005288,0.008505,0.011776
14.257750,0.019111,-0.021375,-0.009662
14.267790,0.014899,-0.008597,0.001069
14.277800,0.017033,-0.011843,0.008537
14.297881,-0.011788,-0.019149,-0.007601
14.307890,0.006309,-0.028835,-0.004392
14.317931,-0.002143,-0.010728,0.011694
14.327940,-0.037469,-0.045673,-0.027025
14.337981,-0.004222,0.003116,0.021367
14.347990,0.032895,-0.035197,-0.032122
14.368040,0.008429,-0.033113,-0.004406
14.368040,0.008429,-0.033113,-0.004406
14.378081,-0.013921,-0.019137,-0.008675
14.388090,0.028729,-0.026873,0.017044
14.398131,-0.032105,-0.029641,-0.033344
14.408184,0.002161,-0.009795,0.037347
14.418194,0.041438,-0.029890,-0.031005
14.448284,-0.033120,-0.023336,-0.010884
14.448284,-0.033120,-0.023336,-0.010884
14.458294,0.037324,-0.001265,0.016120
14.468334,0.005241,-0.023436,-0.016120
14.478344,-0.002099,0.004213,0.013901
14.488384,0.018063,-0.013886,-0.011766
14.508434,0.003189,0.001093,-0.007464
14.518475,-0.008509,0.006435,0.000007
14.528484,-0.014949,-0.009558,-0.001155
14.538525,-0.014914,0.008642,-0.010682
14.548534,-0.031962,0.004376,-0.000068
14.558575,0.022411,0.012763,-0.004151
14.588634,0.010689,0.010640,0.001148
14.588634,0.010689,0.010640,0.001148
14.598675,-0.026657,-0.003107,-0.002225
14.608685,0.027777,0.027706,-0.006201
14.618725,-0.011714,0.004315,-0.001080
14.628735,0.000040,0.012800,0.003265
14.658825,0.018165,0.019184,-0.004132
14.658825,0.018165,0.019184,-0.004132
14.668865,-0.040521,0.000197,-0.013998
14.678875,0.001198,0.041590,0.011950
14.688915,0.011632,-0.024525,-0.016107
14.698925,-0.020148,0.027751,0.017167
14.718975,0.014936,0.003135,0.004329
14.729015,-0.025572,0.015140,-0.022432
14.739025,-0.012806,-0.011756,0.010591
14.749065,-0.021242,0.006300,0.037359
14.759106,-0.007691,-0.025100,-0.106961
14.769115,-0.147796,0.056464,0.130181
14.789165,0.004239,0.018374,-0.049039
14.799206,-0.069188,0.001020,0.057497
14.809216,0.010325,-0.054995,-0.120940
14.819256,-0.039309,0.022352,0.042726
14.829266,-0.006511,-0.041623,-0.001283
14.839306,-0.022548,-0.044644,-0.029115
14.849316,-0.040489,0.001174,0.005235
14.859356,0.007355,-0.032006,-0.011881
14.869396,-0.007591,-0.046960,-0.001311
14.879406,-0.047003,-0.033976,-0.009905
14.889446,0.000942,-0.040544,-0.008735
14.899456,-0.018233,-0.049132,0.013604
14.909496,-0.029989,-0.044680,-0.016317
14.929546,-0.003338,-0.051250,-0.000252
14.929546,-0.003338,-0.051250,-0.000252
14.939556,-0.019363,-0.059696,-0.009950
14.949596,0.003083,-0.047045,0.009400
14.959606,-0.013025,-0.082159,-0.006834
14.969646,0.000964,-0.039537,0.004088
14.979687,0.049941,-0.057851,0.004137
14.989696,-0.012930,-0.056604,0.009310
14.999737,0.014725,-0.066214,-0.009886
15.009747,0.021189,-0.062146,0.028606
15.019787,0.010506,-0.044797,-0.019411
15.029797,-0.010797,-0.058772,0.014647
15.039837,0.004120,-0.054498,0.004026
15.049847,-0.024702,-0.061799,-0.013179
15.069897,0.031912,-0.022530,-0.000018
15.069897,0.031912,-0.022530,-0.000018
15.079937,-0.031101,-0.070383,-0.000419
15.089977,0.019172,-0.008641,0.007490
15.099987,0.004080,-0.055450,-0.020547
15.110027,-0.033102,-0.038475,0.028568
15.120037,0.005220,-0.029833,-0.018286
15.140087,-0.004307,-0.024624,0.015895
15.150127,-0.007567,-0.027646,-0.020448
15.160137,-0.023505,-0.027751,0.012622
15.170177,-0.004378,-0.031938,-0.018323
15.180187,0.015957,-0.015038,0.007450
15.190227,0.006326,-0.025656,0.000964
15.210278,0.005224,-0.034156,-0.007625
15.220318,-0.019260,-0.028782,0.001947
15.230328,0.024492,-0.011862,0.007489
15.240368,0.022277,-0.035289,-0.005446
15.250378,-0.013927,-0.021273,-0.008685
15.260418,0.003206,-0.008655,0.021332
15.280468,-0.001071,-0.010752,0.015969
15.290478,0.006300,-0.029882,-0.008670
15.300518,-0.014997,-0.029874,0.004090
15.310528,0.001051,-0.009650,0.007435
15.320568,-0.019315,-0.039380,-0.015195
15.330608,-0.026710,-0.028793,0.009404
15.350658,-0.017124,-0.023419,-0.004431
15.360668,-0.012871,-0.032017,0.004086
15.370708,-0.004313,-0.023526,0.009491
15.380718,-0.024626,-0.040497,-0.001328
15.390759,-0.039517,-0.036237,0.011470
15.400768,-0.014994,-0.023421,-0.005493
15.420830,-0.033143,-0.032958,-0.008793
15.430871,-0.037402,-0.032959,-0.005600
15.440911,-0.034111,-0.008488,0.011616
15.450921,-0.041696,-0.041464,-0.010994
15.460961,-0.010629,0.005329,0.009610
15.470971,-0.037387,-0.028698,-0.003444
15.491021,-0.029882,-0.020244,0.010504
15.501061,-0.044842,-0.026538,-0.003454
15.511071,-0.028777,-0.003136,0.005247
15.521111,-0.038400,-0.013779,0.004102
15.531121,-0.043733,-0.012673,-0.000181
15.541161,-0.027739,-0.008438,-0.003321
15.561211,-0.036283,-0.021281,0.008345
15.571251,-0.022408,-0.010617,0.002024
15.581261,-0.034160,-0.024492,0.008335
15.591302,-0.013863,-0.008549,0.010603
15.601311,-0.004305,-0.023551,0.014832
15.611352,-0.017125,-0.029877,0.006221
15.631402,-0.014918,-0.010732,0.021272
15.641411,-0.024591,-0.029838,0.002996
15.651452,-0.021335,-0.014953,0.014825
15.661492,0.002079,-0.024615,0.009503
15.671502,-0.020281,-0.023535,0.022265
15.681542,-0.009599,-0.009641,0.012746
15.701592,-0.031995,-0.017064,0.016922
15.711602,-0.008567,-0.023543,0.015888
15.721642,-0.003212,-0.012871,0.013817
15.731652,-0.020318,-0.030960,0.011548
15.741692,0.006387,-0.014000,0.020247
15.751702,-0.005370,-0.022475,0.013766
15.761742,-0.020335,-0.036289,0.009386
15.771782,-0.011728,-0.016107,0.026597
15.781792,-0.011774,-0.023502,0.009470
15.791833,-0.024581,-0.035253,0.018993
15.801842,-0.020259,-0.010679,0.013780
15.811883,-0.010743,-0.035242,0.007281
15.821892,-0.035234,-0.036312,0.024300
15.841942,-0.021364,-0.026710,0.016906
15.851983,-0.029888,-0.029921,0.024345
15.861992,-0.019243,-0.026681,0.009435
15.872033,-0.013904,-0.029963,0.022252
15.882042,-0.025672,-0.037325,0.006162
15.892083,-0.008551,-0.022515,0.024439
15.912133,-0.003249,-0.031066,0.022277
15.922173,-0.002148,-0.018254,0.022340
15.932183,0.002046,-0.039591,0.014773
15.942223,-0.002166,-0.026813,0.025504
15.952233,-0.003223,-0.026840,0.031911
15.962273,0.006283,-0.044909,0.007282
15.972283,-0.004276,-0.025799,0.038322
15.982323,-0.002210,-0.038524,0.017971
15.992333,-0.003240,-0.022477,0.012703
16.002373,-0.021391,-0.039550,0.022186
16.012414,-0.017104,-0.025636,0.012650
16.022423,-0.030970,-0.035253,0.023248
16.032464,-0.009625,-0.020330,0.014832
16.042473,-0.028866,-0.037324,0.008289
16.052514,-0.020262,-0.022518,0.032952
16.062523,-0.000056,-0.024598,0.007361
16.072564,0.004213,-0.035402,0.030822
16.082573,0.017015,-0.029021,0.027683
16.092614,0.005294,-0.026837,0.025525
16.102624,0.041581,-0.015263,0.037430
16.122704,-0.030976,-0.042774,0.032827
16.132714,0.040585,0.007142,0.042874
16.142754,0.014815,-0.047108,0.014773
16.152764,0.016032,-0.002350,0.034216
16.162804,0.019122,-0.031103,0.014861
16.172814,0.012787,-0.017270,0.029864
16.182854,0.005291,-0.025749,0.021257
16.182854,0.005291,-0.025749,0.021257
16.202904,-0.004291,-0.024675,0.026577
16.212914,0.003196,-0.011854,0.020249
16.222954,0.013843,-0.012931,0.014932
16.232995,0.002090,-0.024650,0.016981
16.243004,0.013852,-0.014039,0.023473
16.263054,0.024446,-0.032183,0.013802
16.263054,0.024446,-0.032183,0.013802
16.283104,0.035096,-0.033271,0.010622
16.293145,0.013814,-0.031152,0.028733
16.303155,0.008477,-0.027880,0.018051
16.303155,0.008477,-0.027880,0.018051
16.323205,0.023430,-0.021566,0.027736
16.343285,0.008501,-0.021493,0.022354
16.343285,0.008501,-0.021493,0.022354
16.363335,-0.003236,-0.025721,0.021234
16.373345,-0.014989,-0.034206,0.016888
16.383385,0.010668,-0.012991,0.029878
16.383385,0.010668,-0.012991,0.029878
16.393395,-0.005447,-0.047007,0.007240
16.423530,-0.033128,-0.044857,0.023197
16.423530,-0.033128,-0.044857,0.023197
16.433540,0.011729,-0.007595,0.017088
16.443580,-0.022453,-0.042791,0.030714
16.453590,0.021310,-0.019439,0.030945
16.463630,0.008477,-0.025724,0.013789
16.493721,0.002051,-0.040684,0.020109
16.493721,0.002051,-0.040684,0.020109
16.503731,-0.008580,-0.027809,0.014800
16.513771,0.007477,-0.008694,0.026685
16.523781,0.034084,-0.023742,0.028824
16.533821,0.006348,-0.030034,0.023376
16.553871,0.006407,-0.011910,0.029871
16.563881,-0.004324,-0.032110,0.017996
16.573921,0.011725,-0.012970,0.024540
16.583961,-0.028842,-0.030937,0.012592
16.593971,0.012732,-0.033254,0.022310
16.604011,-0.019223,-0.022435,0.014796
16.634071,-0.014942,-0.018197,0.019100
16.634071,-0.014942,-0.018197,0.019100
16.644111,-0.013946,-0.041680,0.015787
16.654121,-0.000005,-0.018296,0.029823
16.664161,-0.006456,-0.025640,0.006270
16.674171,0.015980,-0.023728,0.038388
16.694252,-0.004316,-0.032135,0.023337
16.704262,0.028778,-0.020566,0.038438
16.714302,0.021259,-0.030052,0.017008
16.724312,-0.001103,-0.030040,0.029765
16.734352,0.024510,-0.017303,0.028828
16.744362,0.007356,-0.047089,0.015821
16.774452,0.008505,-0.023659,0.028753
16.774452,0.008505,-0.023659,0.028753
16.784462,0.013820,-0.026865,0.025548
16.794502,-0.001119,-0.031068,0.021214
16.804542,0.009538,-0.031097,0.020175
16.814552,0.003183,-0.019355,0.025554
16.834602,0.015946,-0.030085,0.027675
16.834602,0.015946,-0.030085,0.027675
16.844642,0.006313,-0.036386,0.011596
16.854652,0.015932,-0.031118,0.020193
16.864692,0.022359,-0.019392,0.020266
16.874702,0.014834,-0.039628,0.013740
16.884743,0.010602,-0.032174,0.021241
16.914802,0.013798,-0.031101,0.018051
16.914802,0.013798,-0.031101,0.018051
16.924843,-0.000052,-0.027842,0.015891
16.934883,0.012730,-0.028936,0.012717
16.944893,0.002059,-0.035324,0.015862
16.954933,0.003176,-0.016100,0.014888
16.984993,-0.007526,-0.026699,0.005194
16.984993,-0.007526,-0.026699,0.005194
16.995033,-0.022435,-0.029920,0.019024
17.005043,-0.018154,-0.018141,0.009478
17.015083,-0.005361,-0.019271,0.013781
17.025093,-0.035256,-0.038397,0.013608
17.045173,-0.009594,-0.010734,0.018082
17.045173,-0.009594,-0.010734,0.018082
17.055183,-0.023519,-0.034168,0.014728
17.065223,-0.029877,-0.021338,0.015840
17.075233,-0.011734,-0.015009,0.020193
17.085274,-0.016045,-0.028848,0.013706
17.095283,-0.007465,-0.012887,0.020214
17.125374,-0.005361,-0.018193,0.011649
17.125374,-0.005361,-0.018193,0.011649
17.135383,-0.028820,-0.025623,0.017959
17.145424,-0.013822,0.002095,0.018131
17.155464,-0.010692,-0.019249,0.012698
17.165474,-0.027716,-0.010665,0.015896
17.185524,-0.014899,0.002134,0.010651
17.185524,-0.014899,0.002134,0.010651
17.195564,-0.033077,-0.018088,0.008369
17.205574,-0.042654,-0.012717,0.008368
17.215614,-0.027703,0.000065,0.005265
17.225624,-0.027708,-0.005305,0.011649
17.235664,-0.027749,-0.013793,-0.000142
17.255714,-0.005321,0.001070,0.003195
17.265754,-0.034148,-0.021298,0.010487
17.275764,-0.012786,-0.003203,0.008495
17.285805,-0.012815,-0.012804,0.006313
17.295814,0.008551,-0.002260,0.020309
17.305855,-0.005377,-0.020299,0.005230
17.335914,0.015952,-0.020408,0.013834
17.335914,0.015952,-0.020408,0.013834
17.345955,-0.000029,-0.024684,0.025520
17.355964,0.007427,-0.020386,0.014879
17.366005,0.010657,-0.010805,0.019206
17.376045,0.017029,-0.019369,0.019183
17.396095,0.007442,-0.017202,0.019167
17.396095,0.007442,-0.017202,0.019167
17.406105,-0.009627,-0.022481,0.018027
17.416162,0.009602,-0.006525,0.018155
17.426172,-0.016048,-0.030994,0.015832
17.436212,-0.013901,-0.023510,0.012669
17.446222,-0.012821,-0.020325,0.015892
17.476312,-0.007443,-0.006495,0.023449
17.476312,-0.007443,-0.006495,0.023449
17.486322,-0.018219,-0.037324,0.000841
17.496362,-0.008525,-0.013982,0.026616
17.506403,0.003138,-0.025676,0.007365
17.516412,-0.002189,-0.032127,0.020138
17.536462,0.009511,-0.035323,0.010541
17.546503,0.009543,-0.032190,0.025511
17.556512,0.006324,-0.032114,0.011616
17.566553,0.010604,-0.032179,0.022310
17.576562,0.004213,-0.027861,0.016971
17.586603,0.006331,-0.033213,0.018020
17.606653,-0.006448,-0.025665,0.011611
17.606653,-0.006448,-0.025665,0.011611
17.616693,0.001019,-0.025710,0.015904
17.626703,-0.016046,-0.032077,0.019032
17.636743,-0.020320,-0.028799,0.006217
17.646753,-0.014954,-0.021391,0.016949
17.656793,0.001007,-0.025669,0.007359
17.686853,-0.024583,-0.029863,0.008336
17.686853,-0.024583,-0.029863,0.008336
17.696893,-0.018165,-0.024569,0.013720
17.706903,-0.018178,-0.025607,0.007306
17.716943,-0.023538,-0.036264,0.006173
17.726984,-0.022453,-0.028787,0.005143
17.757043,-0.012867,-0.029876,0.003028
17.757043,-0.012867,-0.029876,0.003028
17.767084,-0.022451,-0.028792,0.006211
17.777093,-0.008566,-0.019235,0.008431
17.787134,-0.013901,-0.020276,0.006275
17.797144,0.001034,-0.013907,0.004210
17.817194,-0.007503,-0.021385,0.010560
17.817194,-0.007503,-0.021385,0.010560
17.827234,-0.010676,-0.012836,0.011660
17.837274,-0.004261,-0.004303,0.009582
17.847284,0.005329,-0.006481,0.011734
17.857324,-0.014939,-0.019286,0.023368
17.867334,-0.011713,0.000003,0.007445
17.897424,0.008588,0.010550,0.021438
17.897424,0.008588,0.010550,0.021438
17.907434,-0.004253,-0.004329,0.014923
17.917474,-0.004228,0.004210,0.016031
17.927484,0.003258,0.013802,0.015029
17.937524,0.013930,0.015878,0.020410
17.957574,0.002211,0.019130,0.018256
17.957574,0.002211,0.019130,0.018256
17.967615,0.003275,0.021287,0.012928
17.977624,0.006470,0.020209,0.012932
17.987665,-0.000987,0.022374,0.011853
17.997675,0.016066,0.023397,0.009769
18.007715,0.007523,0.017012,0.010783
18.037775,-0.003155,0.013878,0.003262
18.037775,-0.003155,0.013878,0.003262
18.047815,0.001125,0.020277,0.002235
18.057825,0.005392,0.021326,0.003320
18.067865,-0.005298,0.010692,0.001104
18.077905,-0.009567,0.008570,0.001082
18.097955,0.007493,0.010645,0.002207
18.107965,-0.018130,-0.005291,0.002061
18.118005,-0.007462,-0.001049,0.001043
18.128015,-0.022398,-0.006340,0.000976
18.138055,-0.004288,-0.010681,0.003142
18.148065,-0.023492,-0.019172,0.005185
18.168115,-0.016035,-0.019186,0.003070
18.168115,-0.016035,-0.019186,0.003070
18.178156,-0.010714,-0.025641,0.009463
18.188196,-0.029911,-0.030924,0.010453
18.198206,-0.014995,-0.032035,0.009421
18.208246,-0.014987,-0.030982,0.012631
18.218256,-0.011809,-0.037395,0.011541
18.248346,-0.004326,-0.031027,0.014796
18.248346,-0.004326,-0.031027,0.014796
18.258356,-0.022487,-0.046992,0.015739
18.268396,-0.012879,-0.039532,0.012596
18.278406,-0.015003,-0.038473,0.015800
18.288446,-0.017139,-0.039529,0.014721
18.308496,-0.022469,-0.039506,0.013638
18.308496,-0.022469,-0.039506,0.013638
18.318536,-0.013924,-0.032054,0.012628
18.328546,-0.018193,-0.035254,0.014738
18.338586,-0.023525,-0.036304,0.014718
18.348596,-0.018193,-0.033097,0.010475
18.358636,-0.011788,-0.029920,0.011576
18.378687,-0.011808,-0.035244,0.008346
18.388696,-0.004322,-0.026730,0.009476
18.398737,-0.006483,-0.037402,0.009419
18.408769,-0.015006,-0.036307,0.009401
18.418810,-0.004319,-0.024584,0.007349
18.428850,-0.001131,-0.027798,0.007343
18.448900,-0.009644,-0.021348,0.004145
18.458910,-0.008588,-0.023477,0.002002
18.468950,-0.016057,-0.026656,0.001966
18.478960,-0.013912,-0.022397,0.003060
18.489000,-0.016031,-0.017045,0.002011
18.499010,-0.014973,-0.018101,-0.001195
18.519060,-0.008563,-0.013860,0.000979
18.529100,-0.000045,-0.019248,0.005250
18.539140,-0.007519,-0.023490,0.004141
18.549150,0.001030,-0.018204,0.009531
18.559190,0.003157,-0.019274,0.008463
18.569200,-0.002176,-0.020319,0.007375
18.589250,0.003156,-0.021425,0.011658
18.599291,0.002097,-0.020363,0.013796
18.609300,0.001033,-0.020365,0.014862
18.619341,-0.001083,-0.013945,0.013818
18.629350,0.004234,-0.019312,0.015944
18.639391,-0.004269,-0.010741,0.015961
18.649431,0.001044,-0.015015,0.012750
18.659441,-0.001084,-0.016096,0.017012
18.669481,-0.022384,-0.009615,0.015916
18.679491,0.000002,-0.008624,0.017051
18.689531,-0.010676,-0.012836,0.011660
18.699541,-0.018120,-0.007477,0.012733
18.709581,-0.007456,-0.005376,0.012773
18.729631,-0.012785,-0.005359,0.012758
18.739641,-0.001059,-0.003251,0.010664
18.749681,-0.007460,-0.007517,0.013831
18.759721,-0.017069,-0.010664,0.008448
18.769731,0.003209,-0.001124,0.009617
18.779772,-0.007464,-0.006429,0.009563
18.799822,-0.005323,-0.003232,0.009584
18.809831,-0.010660,-0.003189,0.004228
18.819872,-0.000011,-0.006428,0.004242
18.829881,-0.010666,-0.007481,0.008481
18.839922,-0.017068,-0.008513,0.005254
18.849931,-0.007468,-0.007492,0.008490
18.870012,-0.009612,-0.009600,0.004201
18.880022,-0.015987,-0.005333,0.009545
18.890062,-0.021351,-0.012746,-0.000119
18.900072,-0.017059,-0.007466,0.009531
18.910112,-0.023470,-0.011701,0.006289
18.920122,-0.015992,-0.005318,0.006340
18.940172,-0.021340,-0.011703,0.005227
18.950212,-0.017057,-0.007471,0.010600
18.960222,-0.022410,-0.014919,0.008413
18.970262,-0.014932,-0.009613,0.010595
18.980272,-0.007482,-0.014987,0.012727
18.990312,-0.016017,-0.014934,0.007363
19.010362,-0.010684,-0.016040,0.011645
19.020403,-0.005355,-0.016057,0.011660
19.030412,-0.011741,-0.012833,0.011657
19.040453,-0.001094,-0.014988,0.008472
19.050462,0.001060,-0.009681,0.013844
19.060503,-0.010686,-0.016035,0.010577
19.070512,-0.007486,-0.014977,0.010591
19.080553,-0.004279,-0.011784,0.010615
19.090563,-0.005351,-0.012838,0.008470
19.100603,-0.004290,-0.013905,0.007400
19.110643,-0.001098,-0.018207,0.011661
19.120653,0.003163,-0.014982,0.004211
19.130693,-0.012827,-0.017076,0.006293
19.150743,-0.012851,-0.022385,-0.000141
19.160753,0.001024,-0.018184,0.005258
19.170793,0.006345,-0.018176,-0.000068
19.180803,-0.012863,-0.026657,-0.000162
19.190843,0.013813,-0.016069,0.001030
19.200853,-0.014998,-0.025562,-0.004435
19.220934,-0.010726,-0.020216,-0.008671
19.230943,-0.001117,-0.017068,-0.003288
19.240984,0.005253,-0.020242,-0.013968
19.250993,-0.008586,-0.018097,-0.006519
19.261034,0.013788,-0.018144,-0.011798
19.271043,-0.005399,-0.021306,-0.007593
19.291094,-0.012877,-0.026611,-0.009775
19.301134,0.007407,-0.013857,-0.010727
19.311144,-0.005417,-0.026635,-0.009755
19.321184,0.006313,-0.023460,-0.011844
19.331224,0.003115,-0.023449,-0.011853
19.341234,-0.002212,-0.024515,-0.008668
19.361284,-0.000068,-0.020250,-0.008642
19.361284,-0.000068,-0.020250,-0.008642
19.371324,0.018013,-0.029885,-0.016115
19.381334,-0.011811,-0.027693,-0.007641
19.391374,0.025502,-0.019230,-0.016044
19.401384,-0.031031,-0.040445,-0.007755
19.411441,0.024424,-0.024571,-0.015004
19.431491,0.008411,-0.029823,-0.022550
19.441501,-0.025658,-0.022288,-0.011927
19.451541,0.018014,-0.024505,-0.024635
19.461582,-0.023556,-0.031896,-0.014103
19.471591,0.010568,-0.016985,-0.028893
19.481632,-0.033142,-0.026500,-0.019445
19.501682,-0.026756,-0.029724,-0.019442
19.501682,-0.026756,-0.029724,-0.019442
19.511692,0.012680,-0.023394,-0.029986
19.521732,-0.009706,-0.028692,-0.023663
19.531742,0.014781,-0.031919,-0.035361
19.541782,0.003089,-0.027675,-0.021487
19.551792,0.019051,-0.028724,-0.036402
19.571872,0.026521,-0.026623,-0.034235
19.581882,-0.011890,-0.039293,-0.038674
19.591922,0.011570,-0.035098,-0.038590
19.601932,-0.002279,-0.030766,-0.041812
19.611972,0.011543,-0.039324,-0.048224
19.621982,0.006240,-0.032924,-0.042867
19.642032,-0.003362,-0.030707,-0.053565
19.642032,-0.003362,-0.030707,-0.053565
19.652072,-0.002330,-0.043530,-0.052555
19.662082,0.004042,-0.043480,-0.067492
19.672123,-0.022603,-0.046623,-0.062239
19.682163,0.005126,-0.035998,-0.069590
19.692173,-0.008799,-0.059432,-0.072944
19.712223,-0.013059,-0.052965,-0.082539
19.712223,-0.013059,-0.052965,-0.082539
19.722263,-0.010927,-0.052972,-0.082533
19.732273,-0.007724,-0.049769,-0.084646
19.742313,-0.003492,-0.055072,-0.095341
19.752323,-0.009864,-0.051892,-0.085730
19.762363,0.007155,-0.055071,-0.102789
19.772373,-0.000279,-0.051898,-0.091044
19.782413,0.014609,-0.052919,-0.111304
19.792453,-0.002419,-0.049710,-0.100654
19.802463,0.012468,-0.055037,-0.113457
19.812503,0.005010,-0.052867,-0.115603
19.822513,0.007149,-0.051821,-0.112388
19.832553,0.011411,-0.046445,-0.123033
19.852603,0.016728,-0.050734,-0.123038
19.862613,-0.005695,-0.054837,-0.143416
19.872654,-0.005649,-0.042057,-0.135878
19.882663,0.003902,-0.050576,-0.147642
19.892704,0.000682,-0.055880,-0.153017
19.902713,-0.017413,-0.049434,-0.148764
19.922794,0.009224,-0.047339,-0.158294
19.932804,0.002782,-0.055786,-0.174375
19.942844,-0.013195,-0.053613,-0.171204
19.952854,0.020911,-0.049417,-0.178568
19.962894,0.015563,-0.054724,-0.181812
19.972904,0.005947,-0.060002,-0.188273
19.992954,0.029365,-0.064294,-0.199979
20.002994,0.018716,-0.062134,-0.197862
20.013004,0.014423,-0.064180,-0.213906
20.023044,0.025098,-0.062114,-0.206390
20.033084,0.018647,-0.073765,-0.222486
20.033084,0.018647,-0.073765,-0.222486
20.053134,0.027179,-0.069501,-0.226715
20.073185,0.032486,-0.072681,-0.235261
20.073185,0.032486,-0.072681,-0.235261
20.093235,0.055860,-0.084373,-0.263025
20.103244,0.056952,-0.060761,-0.288548
20.113285,0.053707,-0.075681,-0.292900
20.113285,0.053707,-0.075681,-0.292900
20.123294,0.043090,-0.072544,-0.271550
20.153385,0.064373,-0.071434,-0.294987
20.153385,0.064373,-0.071434,-0.294987
20.163425,0.062234,-0.071401,-0.300334
20.173435,0.062233,-0.075709,-0.292877
20.183475,0.078230,-0.070406,-0.296012
20.193485,0.045157,-0.076655,-0.306815
20.223575,0.063266,-0.069143,-0.327026
20.233585,0.064321,-0.071267,-0.330237
20.233585,0.064321,-0.071267,-0.330237
20.243625,0.074976,-0.066984,-0.339802
20.253665,0.063233,-0.073349,-0.340932
20.263675,0.089887,-0.065924,-0.348301
20.293766,0.080283,-0.063701,-0.360067
20.293766,0.080283,-0.063701,-0.360067
20.303775,0.084507,-0.071130,-0.372909
20.313816,0.083486,-0.060498,-0.362180
20.323825,0.097288,-0.068990,-0.382478
20.333866,0.072787,-0.068951,-0.374000
20.353916,0.091970,-0.061467,-0.388866
20.353916,0.091970,-0.061467,-0.388866
20.363925,0.105845,-0.059422,-0.379204
20.373966,0.099451,-0.055094,-0.386679
20.384006,0.098377,-0.055065,-0.392023
20.394016,0.101612,-0.043343,-0.388754
20.404056,0.107976,-0.047575,-0.401575
20.434134,0.109058,-0.035781,-0.412198
20.434134,0.109058,-0.035781,-0.412198
20.444174,0.086682,-0.038958,-0.402661
20.454184,0.088828,-0.027162,-0.414350
20.464224,0.105864,-0.032552,-0.415396
20.474234,0.118677,-0.027279,-0.409995
20.494315,0.112326,-0.004776,-0.421656
20.494315,0.112326,-0.004776,-0.421656
20.504324,0.067446,-0.038733,-0.436896
20.514365,0.116552,-0.011137,-0.434493
20.524374,0.068545,-0.024839,-0.440032
20.534415,0.097362,-0.013210,-0.434556
20.544424,0.089861,-0.022752,-0.444236
20.564474,0.113353,-0.002502,-0.451553
20.564474,0.113353,-0.002502,-0.451553
20.574515,0.094115,-0.024891,-0.446371
20.584525,0.089891,-0.008843,-0.449511
20.594565,0.097333,-0.013119,-0.453784
20.604605,0.121861,-0.012166,-0.446234
20.614615,0.090907,-0.022694,-0.457051
20.644705,0.114390,-0.011033,-0.454795
20.644705,0.114390,-0.011033,-0.454795
20.654715,0.103732,-0.010999,-0.454824
20.664755,0.091999,-0.012008,-0.459134
20.674765,0.077064,-0.015149,-0.462395
20.684805,0.102641,-0.016300,-0.462330
20.704855,0.070675,-0.010836,-0.466665
20.704855,0.070675,-0.010836,-0.466665
20.714896,0.083463,-0.009794,-0.469830
20.724905,0.080229,-0.019365,-0.476293
20.734946,0.058928,-0.012878,-0.478458
20.744955,0.075954,-0.023623,-0.476325
20.754996,0.122883,-0.009877,-0.479335
20.785056,0.125958,-0.024580,-0.533875
20.785056,0.125958,-0.024580,-0.533875
20.795096,0.116428,-0.019361,-0.501830
20.805106,0.099333,-0.035330,-0.500885
20.815146,0.085497,-0.028882,-0.499824
20.825156,0.129216,-0.018320,-0.504994
20.855246,0.137734,-0.016166,-0.514575
20.855246,0.137734,-0.016166,-0.514575
20.865286,0.106753,-0.037379,-0.524375
20.875296,0.118522,-0.022481,-0.521067
20.885336,0.109951,-0.034160,-0.529692
20.895346,0.111054,-0.022431,-0.526428
20.915396,0.133393,-0.033143,-0.534963
20.915396,0.133393,-0.033143,-0.534963
20.925436,0.115290,-0.024515,-0.540313
20.935446,0.116340,-0.025546,-0.548861
20.945486,0.139823,-0.018192,-0.539147
20.955527,0.130225,-0.017068,-0.544510
20.965536,0.113116,-0.026528,-0.564898
20.995627,0.117425,-0.016991,-0.552022
20.995627,0.117425,-0.016991,-0.552022
21.005637,0.115255,-0.019019,-0.573402
21.015677,0.097120,-0.029680,-0.564957
21.025687,0.109935,-0.022261,-0.561682
21.035727,0.104580,-0.025392,-0.573462
21.055777,0.124818,-0.034036,-0.565969
21.055777,0.124818,-0.034036,-0.565969
21.065817,0.133356,-0.030870,-0.563794
21.075827,0.150369,-0.038340,-0.576601
21.085867,0.137592,-0.039417,-0.565959
21.095877,0.168511,-0.035241,-0.566922
21.105917,0.154622,-0.046938,-0.568084
21.125967,0.166309,-0.059786,-0.569181
21.125967,0.166309,-0.059786,-0.569181
21.135977,0.156732,-0.056572,-0.564919
21.146017,0.164165,-0.062973,-0.571338
21.156027,0.155621,-0.069353,-0.571392
21.166068,0.154571,-0.064015,-0.570302
21.176108,0.164123,-0.073612,-0.579934
21.196158,0.133191,-0.079899,-0.584323
21.196158,0.133191,-0.079899,-0.584323
21.206168,0.128932,-0.076666,-0.587524
21.216208,0.133192,-0.076670,-0.589648
21.226218,0.143844,-0.078840,-0.589629
21.236258,0.119315,-0.080866,-0.596116
21.246268,0.106495,-0.092577,-0.595138
21.266318,0.132064,-0.091551,-0.603609
21.266318,0.132064,-0.091551,-0.603609
21.276358,0.122451,-0.097918,-0.605802
21.286368,0.115007,-0.093637,-0.602597
21.296408,0.145898,-0.100145,-0.602543
21.306448,0.103241,-0.104238,-0.611226
21.316458,0.121349,-0.105339,-0.616522
21.346548,0.120256,-0.112791,-0.620833
21.346548,0.120256,-0.112791,-0.620833
21.356558,0.093659,-0.099930,-0.612300
21.366599,0.101045,-0.115877,-0.632651
21.376608,0.079768,-0.110544,-0.616662
21.386649,0.071210,-0.111493,-0.635918
21.406699,0.045613,-0.117817,-0.636018
21.406699,0.045613,-0.117817,-0.636018
21.416762,0.097823,-0.124405,-0.633769
21.426772,0.040248,-0.130610,-0.637162
21.436812,0.067990,-0.122182,-0.631704
21.446822,0.083978,-0.121161,-0.632723
21.456862,0.063665,-0.137053,-0.645673
21.486922,0.089245,-0.137142,-0.644535
21.496962,0.076518,-0.122215,-0.630613
21.506972,0.126597,-0.119103,-0.645414
21.517012,0.077573,-0.124339,-0.633824
21.527052,0.102055,-0.128630,-0.646596
21.537062,0.127683,-0.118094,-0.633656
21.547102,0.089296,-0.120065,-0.642317
21.557112,0.135137,-0.118098,-0.637909
21.567153,0.106354,-0.112599,-0.651849
21.577162,0.103205,-0.107355,-0.629400
21.587203,0.130871,-0.114845,-0.645382
21.597212,0.135164,-0.109565,-0.635732
21.617262,0.127719,-0.100972,-0.641053
21.627303,0.141557,-0.104195,-0.646371
21.637343,0.177787,-0.106444,-0.647349
21.647353,0.139479,-0.089278,-0.637760
21.657393,0.184218,-0.099040,-0.636615
21.667403,0.112731,-0.123335,-0.644405
21.687453,0.187411,-0.100113,-0.637679
21.687453,0.187411,-0.100113,-0.637679
21.697493,0.130866,-0.112674,-0.652850
21.707503,0.156545,-0.096915,-0.615317
21.717543,0.160735,-0.104237,-0.650591
21.727553,0.119221,-0.099957,-0.623980
21.737593,0.173558,-0.102229,-0.632386
21.757643,0.107463,-0.111661,-0.625136
21.767684,0.170373,-0.093640,-0.639832
21.777693,0.147973,-0.107516,-0.626073
21.787734,0.126675,-0.105346,-0.618644
21.797743,0.149005,-0.109564,-0.645307
21.807784,0.142663,-0.104325,-0.619663
21.827834,0.092554,-0.108419,-0.623025
21.827834,0.092554,-0.108419,-0.623025
21.837843,0.156489,-0.108586,-0.631395
21.847884,0.114891,-0.114813,-0.641154
21.857893,0.118113,-0.112749,-0.628316
21.867934,0.154362,-0.102131,-0.639916
21.877974,0.134076,-0.112725,-0.644295
21.898024,0.117010,-0.109395,-0.659282
21.908034,0.125627,-0.095706,-0.623942
21.918074,0.205519,-0.101215,-0.642975
21.928084,0.093560,-0.120084,-0.641238
21.938124,0.150130,-0.092521,-0.636678
21.948134,0.127743,-0.090277,-0.644207
21.968184,0.124602,-0.071054,-0.641988
21.968184,0.124602,-0.071054,-0.641988
21.978224,0.151188,-0.087114,-0.651604
21.988265,0.146923,-0.090325,-0.647359
21.998274,0.138477,-0.063624,-0.641915
22.008315,0.162979,-0.066897,-0.643999
22.018324,0.151204,-0.075317,-0.662231
22.038374,0.132053,-0.061356,-0.665422
22.048415,0.156662,-0.040193,-0.640685
22.058424,0.123629,-0.035799,-0.643960
22.068465,0.141724,-0.035782,-0.659933
22.078475,0.102313,-0.032496,-0.650413
22.088515,0.106615,-0.028324,-0.632222
22.108565,0.154629,-0.013569,-0.623473
22.108565,0.154629,-0.013569,-0.623473
22.118605,0.148173,-0.028434,-0.637448
22.128615,0.144992,-0.024167,-0.634232
22.138655,0.137574,-0.014582,-0.623525
22.148665,0.150327,-0.025282,-0.627814
22.158705,0.153555,-0.024311,-0.609640
22.188765,0.155681,-0.023225,-0.614971
22.188765,0.155681,-0.023225,-0.614971
22.198805,0.143984,-0.027580,-0.589386
22.208846,0.138675,-0.016853,-0.595760
22.218855,0.188803,-0.004200,-0.595561
22.228896,0.157852,-0.025509,-0.585065
22.248946,0.145080,-0.019060,-0.585070
22.248946,0.145080,-0.019060,-0.585070
22.258955,0.163201,-0.024514,-0.573295
22.268996,0.123754,-0.023268,-0.584081
22.279006,0.157961,-0.012927,-0.535868
22.289046,0.159977,-0.036266,-0.570155
22.299056,0.125941,-0.020217,-0.553082
22.319106,0.125860,-0.038276,-0.573464
22.329146,0.135555,-0.019241,-0.540232
22.339186,0.138755,-0.018184,-0.540218
22.349196,0.138758,-0.030042,-0.516774
22.359236,0.154708,-0.027822,-0.545561
22.369246,0.109962,-0.034195,-0.522214
22.389296,0.109990,-0.019204,-0.530689
22.389296,0.109990,-0.019204,-0.530689
22.399336,0.133462,-0.025819,-0.502882
22.409346,0.110987,-0.036223,-0.545722
22.419426,0.055657,-0.030946,-0.494575
22.429436,0.169714,-0.010905,-0.519802
22.439476,0.052395,-0.037197,-0.525592
22.459527,0.108935,-0.016002,-0.529608
22.469567,0.050377,-0.019238,-0.482784
22.479577,0.093048,-0.001186,-0.490058
22.489617,0.023654,-0.029673,-0.516022
22.499627,0.108001,-0.005643,-0.461196
22.509667,0.080211,-0.018231,-0.490175
22.529717,0.080283,-0.004454,-0.467677
22.529717,0.080283,-0.004454,-0.467677
22.539727,0.075994,-0.016208,-0.463471
22.549767,0.065345,-0.021589,-0.447503
22.559807,0.068558,-0.010874,-0.457057
22.569817,0.092065,-0.001446,-0.434515
22.579857,0.092032,-0.008881,-0.443096
22.609917,0.157083,-0.003823,-0.427937
22.619957,0.080441,0.009049,-0.387496
22.629967,0.113462,0.006846,-0.395961
22.640007,0.109189,-0.006036,-0.378943
22.650017,0.080461,0.012218,-0.380004
22.660058,0.118825,0.009952,-0.378840
22.670098,0.110305,0.003496,-0.362871
22.680108,0.085836,0.014210,-0.353274
22.690148,0.086848,-0.002861,-0.357625
22.700158,0.123177,0.022586,-0.343517
22.710198,0.115698,0.012974,-0.338242
22.720208,0.096483,0.001284,-0.337283
22.730248,0.084787,0.009850,-0.334070
22.740258,0.068775,0.001364,-0.335222
22.750298,0.117867,0.022543,-0.330714
22.760308,0.061357,0.012027,-0.326647
22.770348,0.092280,0.014032,-0.320143
22.780358,0.106136,0.017216,-0.325430
22.790398,0.049651,0.008775,-0.308535
22.810448,0.073122,0.023706,-0.320150
22.810448,0.073122,0.023706,-0.320150
22.820488,0.073094,0.009792,-0.313806
22.830498,0.074186,0.018322,-0.311627
22.840538,0.049693,0.021570,-0.304201
22.850548,0.080574,0.011858,-0.304162
22.860589,0.046470,0.015198,-0.309582
22.880639,0.056069,0.010835,-0.296757
22.890648,0.024088,0.015271,-0.309643
22.900689,0.056106,0.017181,-0.283908
22.910729,0.049703,0.019384,-0.293530
22.920739,0.034791,0.019402,-0.287161
22.930779,0.043313,0.014004,-0.280754
22.950829,0.020952,0.018318,-0.274386
22.950829,0.020952,0.018318,-0.274386
22.960839,0.067841,0.011723,-0.266810
22.970879,0.030577,0.026800,-0.267910
22.980889,0.063587,0.013862,-0.264676
22.990929,0.056151,0.017040,-0.253999
23.000939,0.023091,0.009672,-0.254125
23.021019,0.030647,0.029811,-0.227304
23.031029,0.066816,0.012673,-0.241172
23.041069,0.039110,0.007362,-0.228455
23.051079,0.038077,0.011572,-0.214551
23.061120,0.050823,0.005204,-0.231637
23.071129,0.058287,-0.006679,-0.208172
23.091179,0.044453,0.002992,-0.211369
23.091179,0.044453,0.002992,-0.211369
23.101220,0.066868,-0.001494,-0.181419
23.111229,0.040225,0.007202,-0.195338
23.121270,0.027414,-0.002383,-0.192214
23.131310,0.079667,-0.006951,-0.165386
23.141320,0.031717,0.007174,-0.183611
23.161370,0.057311,0.002733,-0.165402
23.171410,0.072197,-0.014438,-0.157964
23.181420,0.034899,-0.016488,-0.150600
23.191460,0.066923,-0.000593,-0.146163
23.201470,0.055168,-0.013380,-0.144120
23.211510,0.045656,0.004710,-0.123764
23.231560,0.048840,-0.006030,-0.113124
23.241570,0.038152,-0.009134,-0.127055
23.251610,0.052054,-0.003940,-0.105628
23.261651,0.041345,-0.016670,-0.116400
23.271660,0.020062,-0.013473,-0.100420
23.281701,0.066949,-0.012522,-0.107764
23.301751,0.053110,-0.013606,-0.094989
23.311760,0.032832,-0.024224,-0.094027
23.321801,0.021161,-0.007120,-0.089705
23.331810,0.054176,-0.021151,-0.081135
23.341851,0.039262,-0.021127,-0.075835
23.351860,0.008356,-0.016725,-0.082308
23.371941,0.005060,-0.047639,-0.092078
23.381951,0.006303,0.002424,-0.065132
23.391991,0.024273,-0.035944,-0.094106
23.402001,-0.014080,-0.033714,-0.087792
23.412041,-0.021466,-0.011304,-0.079161
23.422066,-0.028001,-0.052851,-0.096467
23.442116,-0.021498,-0.012280,-0.098393
23.452156,-0.010948,-0.060448,-0.082569
23.462166,-0.030073,-0.033642,-0.092109
23.472206,-0.024758,-0.031462,-0.104902
23.482247,-0.008729,-0.038109,-0.065365
23.492256,-0.019443,-0.038975,-0.100650
23.512306,0.004041,-0.035934,-0.082411
23.522347,-0.048225,-0.049637,-0.084757
23.532356,0.027582,-0.010456,-0.066202
23.542397,-0.009840,-0.045505,-0.081427
23.552406,-0.002363,-0.045580,-0.070724
23.562447,-0.012959,-0.026353,-0.064253
23.582497,0.006191,-0.040309,-0.062130
23.592537,0.003041,-0.024289,-0.059926
23.602547,0.003030,-0.035029,-0.047159
23.612587,0.020075,-0.036137,-0.050321
23.622597,-0.013998,-0.031821,-0.036508
23.632637,0.015888,-0.018050,-0.033156
23.652687,-0.000106,-0.023363,-0.027884
23.662697,-0.026780,-0.035034,-0.025877
23.672737,-0.011826,-0.024413,-0.023649
23.682747,0.010564,-0.019126,-0.027835
23.692787,-0.000052,-0.021379,0.004172
23.702828,-0.006515,-0.025453,-0.033253
23.722878,0.033962,-0.040591,-0.021462
23.732887,0.005310,-0.013961,0.012767
23.742928,-0.013812,-0.013018,0.052243
23.752937,0.074405,-0.052389,-0.038498
23.762978,-0.043571,0.015898,0.055502
23.772988,0.069165,-0.039728,-0.002133
23.783028,-0.091722,-0.019968,-0.005689
23.793038,0.040472,-0.014045,0.006455
23.803078,-0.005494,-0.042548,-0.032263
23.803078,-0.005494,-0.042548,-0.032263
23.813088,-0.032944,0.007345,0.050150
23.833168,0.022335,-0.005311,-0.021328
23.843178,-0.036222,-0.004240,0.018039
23.863228,-0.050085,-0.004170,0.012660
23.873268,-0.003159,0.007430,0.011777
23.873268,-0.003159,0.007430,0.011777
23.883278,0.030808,-0.028869,-0.013938
23.903328,0.015937,-0.017129,-0.002173
23.913368,-0.035227,-0.013713,-0.011913
23.933418,-0.013873,-0.007441,0.002063
23.933418,-0.013873,-0.007441,0.002063
23.953469,-0.018169,-0.013784,-0.008661
23.953469,-0.018169,-0.013784,-0.008661
23.963509,-0.030958,-0.019132,0.001960
23.973519,-0.018196,-0.028780,0.000882
23.983559,-0.035205,-0.017013,0.008368
24.003609,-0.003254,-0.018124,-0.004368
24.013619,-0.053379,-0.022167,-0.018412
24.023659,-0.092794,-0.039334,0.025195
24.033669,-0.059776,-0.025371,-0.014172
24.043709,-0.016002,-0.010673,0.009519
24.053749,0.002043,-0.029889,-0.004409
24.083809,-0.027788,-0.030905,0.005118
24.083809,-0.027788,-0.030905,0.005118
24.093849,-0.040518,-0.023510,0.030755
24.103859,0.020109,-0.030859,-0.037478
24.113899,-0.028736,-0.017272,0.058591
24.123909,0.035040,-0.037401,-0.019308
24.143959,0.002127,-0.019381,0.031961
24.143959,0.002127,-0.019381,0.031961
24.154000,-0.027823,-0.037257,-0.006662
24.164040,-0.040497,-0.025731,0.048904
24.174050,0.003099,-0.033091,-0.005489
24.184090,-0.038463,-0.043741,0.016778
24.194100,-0.010639,-0.011875,0.034097
24.224190,0.015883,-0.029883,-0.015052
24.224190,0.015883,-0.029883,-0.015052
24.234200,-0.057630,-0.029730,0.002905
24.244240,-0.095905,-0.027748,0.061560
24.254250,-0.019268,-0.016908,-0.024702
24.264290,-0.029822,-0.019359,0.048964
24.284340,-0.051185,-0.021294,0.021122
24.294380,-0.016010,-0.018189,0.018029
24.304390,-0.011806,-0.036327,0.011546
24.314430,0.026817,0.021991,0.073885
24.324440,0.057424,-0.052561,0.009524
24.334480,-0.010572,0.000839,0.055522
24.354531,-0.043661,-0.006438,0.036168
24.354531,-0.043661,-0.006438,0.036168
24.364540,0.019266,-0.021866,0.093953
24.374581,-0.001182,-0.031943,-0.019382
24.384590,-0.147918,0.027767,0.101203
24.394631,0.107649,-0.041295,0.077014
24.404671,-0.029765,0.004161,0.043734
24.434732,-0.074642,-0.033035,0.035957
24.434732,-0.074642,-0.033035,0.035957
24.444772,-0.038271,0.011664,0.043746
24.454782,-0.005174,0.005990,0.091880
24.464822,0.007336,-0.052413,0.012591
24.474832,-0.077635,0.029881,0.057610
24.494882,-0.072480,-0.026675,0.044538
24.494882,-0.072480,-0.026675,0.044538
24.504922,-0.007275,0.025290,0.077011
24.514962,-0.010744,-0.051398,0.036046
24.524972,-0.046849,-0.010765,0.050026
24.535012,-0.068180,-0.028962,0.073381
24.545022,-0.040525,-0.001944,-0.012940
24.575113,0.040343,-0.059956,0.004101
24.575113,0.040343,-0.059956,0.004101
24.585122,-0.147053,-0.017920,0.050783
24.595163,-0.022350,-0.011877,0.042611
24.605172,0.061725,-0.055925,0.040498
24.615213,-0.102238,-0.007457,0.065911
24.635263,-0.108728,-0.035141,0.052944
24.635263,-0.108728,-0.035141,0.052944
24.645303,-0.033045,-0.028959,0.048909
24.655313,-0.013893,-0.034306,0.037187
24.665353,-0.082148,-0.061952,0.058232
24.675363,-0.059731,-0.045980,0.053028
24.685403,-0.059757,-0.054513,0.050851
24.705453,-0.078885,-0.024468,0.033849
24.715463,-0.058722,-0.058728,0.038016
24.725503,-0.125669,-0.021436,0.102100
24.735543,0.032874,-0.052365,-0.015112
24.745553,-0.164024,-0.031049,0.128654
24.755594,0.054263,-0.051589,0.031952
24.785653,0.159700,-0.064615,0.004409
24.785653,0.159700,-0.064615,0.004409
24.795694,-0.106390,-0.018568,0.159850
24.805703,-0.024608,-0.022241,-0.022606
24.815744,0.044789,-0.025001,0.061962
24.825753,0.007669,0.003625,0.131429
24.845803,0.031081,0.018743,0.080291
24.845803,0.031081,0.018743,0.080291
24.855844,0.025633,-0.016411,0.065154
24.865884,-0.000894,0.008076,0.099380
24.875894,0.058768,-0.009280,0.115486
24.885934,-0.006193,0.025236,0.087696
24.895944,0.076762,-0.034797,0.079095
24.915994,-0.046811,0.007425,0.042634
24.915994,-0.046811,0.007425,0.042634
24.926034,0.065241,0.018460,0.116703
24.936044,0.034381,0.035642,0.117767
24.946084,-0.046757,0.004024,0.084279
24.956094,0.020471,0.025089,0.100587
24.966134,0.023684,0.032569,0.097427
24.986184,0.023683,0.041188,0.081445
24.986184,0.023683,0.041188,0.081445
24.996225,-0.087158,0.026461,0.109910
25.006234,0.008674,0.037208,0.030110
25.016275,0.012100,0.065556,0.130666
25.026284,-0.053222,-0.002196,0.048980
25.036325,0.058871,0.051794,0.073046
25.056375,-0.070303,-0.006361,0.038231
25.056375,-0.070303,-0.006361,0.038231
25.066385,0.049408,0.085887,0.096682
25.076425,0.008571,-0.037871,0.098120
25.086465,-0.020074,0.015665,0.088680
25.096475,-0.033919,0.038298,0.054566
25.106515,0.008685,-0.002685,0.110037
25.136575,-0.079746,0.007204,0.111976
25.136575,-0.079746,0.007204,0.111976
25.146615,0.069312,-0.013263,0.047130
25.156625,-0.064797,0.008142,0.129113
25.166665,0.014979,-0.016391,0.068330
25.176675,-0.035010,-0.006860,0.119511
25.206765,-0.012752,-0.022699,0.066087
25.206765,-0.012752,-0.022699,0.066087
25.216806,-0.010461,-0.000588,0.131359
25.226815,-0.016981,-0.023869,0.090638
25.236856,-0.066010,-0.008622,0.061733
25.246865,-0.025437,-0.012216,0.116307
25.266916,0.006492,-0.017563,0.096074
25.276956,-0.058513,-0.040001,0.142790
25.286966,0.042653,-0.006667,0.025723
25.297006,0.017218,-0.010274,0.128185
25.307016,-0.043699,-0.045096,0.080850
25.317056,-0.037219,-0.015224,0.083146
25.337106,-0.015919,-0.017399,0.076785
25.347146,0.006485,-0.020772,0.097127
25.357156,-0.014879,-0.028092,0.078874
25.367196,-0.017992,-0.000341,0.084338
25.377206,-0.036196,-0.025867,0.074553
25.387246,-0.027617,-0.012057,0.084255
25.407296,-0.050068,-0.025766,0.062764
25.417347,-0.027587,0.004008,0.074718
25.427387,-0.042553,-0.009807,0.070338
25.437428,-0.035100,-0.008728,0.062886
25.447438,-0.042618,-0.024682,0.054244
25.457478,-0.051020,-0.002425,0.095987
25.477528,-0.048963,-0.006506,0.054313
25.477528,-0.048963,-0.006506,0.054313
25.487538,-0.020145,-0.009960,0.087491
25.497578,0.018162,-0.014200,0.054462
25.507588,-0.046870,-0.023625,0.059579
25.517628,0.004373,0.001793,0.069454
25.527638,0.018142,-0.017368,0.046969
25.547718,0.001139,-0.000236,0.049140
25.557728,-0.003138,-0.013103,0.062954
25.567768,-0.027656,-0.015165,0.063945
25.577778,0.002214,-0.003499,0.060878
25.587818,-0.015952,-0.019449,0.058616
25.597828,0.023564,0.006018,0.066323
25.617878,-0.072377,-0.019463,0.100120
25.627918,0.058638,-0.005636,0.022568
25.637928,-0.044745,-0.031153,0.069163
25.647969,-0.019106,-0.007727,0.066140
25.658009,0.017014,-0.025787,0.021289
25.668019,-0.063918,-0.031126,0.076587
25.688069,-0.014939,-0.030056,0.042545
25.698109,-0.015928,-0.017369,0.070376
25.708119,-0.017164,-0.046989,0.011481
25.718159,-0.029811,-0.022623,0.061767
25.728169,-0.012899,-0.049164,0.016823
25.738209,-0.005298,-0.016239,0.050115
25.758259,-0.048034,-0.041625,0.027444
25.758259,-0.048034,-0.041625,0.027444
25.768269,0.038372,-0.011983,0.023550
25.778309,-0.022498,-0.054498,0.022112
25.788349,-0.007480,-0.030075,0.041497
25.798359,0.009506,-0.037459,0.010531
25.808399,-0.012884,-0.045981,0.021111
25.828449,0.013752,-0.040652,0.005187
25.838459,-0.019242,-0.037457,0.029680
25.848500,0.021239,-0.042913,0.026561
25.858509,-0.006501,-0.043810,0.009389
25.868550,-0.040538,-0.033141,0.034982
25.878559,0.057414,-0.043911,-0.012868
25.908650,0.030819,-0.038596,0.010585
25.908650,0.030819,-0.038596,0.010585
25.918690,0.050102,-0.024968,0.051295
25.928700,-0.028985,-0.056340,-0.035598
25.938740,-0.051065,-0.004439,0.070340
25.948750,0.124468,-0.065387,-0.034148
25.968800,0.059604,-0.031179,0.003222
25.968800,0.059604,-0.031179,0.003222
25.978840,-0.022558,-0.057540,-0.012085
25.988850,0.071537,0.004748,0.076063
25.998890,0.051974,-0.079090,-0.022663
26.008930,-0.069195,0.003196,0.048962
26.018940,0.062732,-0.056820,0.003109
26.038990,0.022249,-0.050280,0.003028
26.049031,0.002134,-0.015095,0.028776
26.059040,0.034006,-0.042884,0.011641
26.069081,0.001039,-0.022541,0.023397
26.079090,0.008468,-0.026771,0.009511
26.089131,0.002068,-0.032121,0.015877
26.109181,-0.013919,-0.026684,0.006245
26.119221,0.015945,-0.017154,0.003168
26.129231,-0.005404,-0.034217,0.012642
26.139271,0.014976,0.011628,0.015051
26.149281,0.024325,-0.050110,-0.034353
26.159321,-0.028651,0.009391,0.066194
26.179371,-0.099181,-0.035031,0.023061
26.179371,-0.099181,-0.035031,0.023061
26.189381,0.009640,0.006280,0.020352
26.199421,0.144899,0.000764,-0.034847
26.209431,-0.043710,-0.034290,0.054196
26.219471,-0.011818,-0.011512,-0.041747
26.229511,0.040533,0.001918,0.018281
26.249562,-0.053310,-0.007302,-0.000182
26.259571,0.003209,-0.001124,0.009617
26.269612,-0.002154,0.001156,-0.017092
26.279621,-0.031958,0.005438,0.001006
26.289662,0.028783,-0.000114,0.004352
26.299671,-0.034134,-0.000876,-0.017190
26.319721,0.021311,-0.001132,-0.001015
26.329762,-0.028811,-0.008415,-0.007597
26.339771,-0.017052,0.009748,-0.017092
26.349812,-0.001028,0.013887,0.000063
26.359852,0.044770,0.006298,-0.007324
26.369862,-0.025596,-0.010637,0.008425
26.389912,0.033015,-0.004339,-0.008475
26.399952,0.021433,0.029721,0.023701
26.409962,-0.002230,-0.020147,-0.028943
26.420005,-0.042600,-0.001041,0.023378
26.430015,0.025607,0.015986,-0.010536
26.440055,-0.029922,-0.026581,-0.004481
26.460105,-0.024669,-0.027433,-0.053609
26.470146,-0.039376,-0.009751,0.056460
26.480155,-0.019372,-0.037047,-0.056844
26.490196,-0.069304,-0.005074,-0.008761
26.500205,-0.006385,-0.015092,0.034094
26.510246,-0.017198,-0.033956,-0.034391
26.530296,-0.007550,-0.033087,0.000891
26.540305,-0.004383,-0.024382,-0.035378
26.550346,-0.132273,-0.047683,0.011159
26.560356,-0.003337,-0.023246,-0.050325
26.570396,0.009496,-0.038507,0.006253
26.580436,-0.114253,-0.087286,0.017431
26.600486,0.035029,-0.042750,-0.017197
26.610496,-0.072706,-0.074433,-0.018713
26.620536,-0.020348,-0.038405,0.005103
26.630546,-0.024802,-0.084104,-0.038922
26.640586,-0.048122,-0.051039,-0.014261
26.650596,0.022237,-0.052396,-0.001255
26.670646,-0.049165,-0.048955,-0.002504
26.680686,-0.000290,-0.092798,-0.023940
26.690727,-0.043898,-0.067087,-0.011121
26.700736,-0.023605,-0.052207,-0.009926
26.710777,-0.016301,-0.090514,-0.044270
26.720786,-0.068349,-0.055356,0.009163
26.740837,-0.088672,-0.064755,-0.021916
26.740837,-0.088672,-0.064755,-0.021916
26.750877,-0.042885,-0.075543,-0.030386
26.760887,-0.023609,-0.051119,-0.014194
26.770927,-0.055662,-0.074464,-0.024007
26.780937,-0.050286,-0.057394,-0.023911
26.790977,-0.023623,-0.054307,-0.017414
26.811027,-0.023573,-0.053386,0.013569
26.821067,-0.016242,-0.078853,-0.026055
26.831077,-0.022628,-0.081014,-0.016469
26.841117,0.031877,-0.033189,-0.004342
26.851127,-0.025904,-0.088297,-0.054968
26.861167,-0.028836,-0.049269,0.049893
26.881217,-0.008756,-0.064954,-0.034514
26.891227,0.019068,-0.041706,-0.001213
26.901267,0.018946,-0.075789,-0.020602
26.911277,-0.015103,-0.067241,0.001777
26.921317,0.029698,-0.048113,-0.008691
26.931358,0.028575,-0.063010,-0.019447
26.951408,0.030766,-0.044893,-0.012946
26.961418,0.017872,-0.076838,-0.023815
26.971458,-0.010770,-0.044854,0.007236
26.981468,0.038187,-0.059873,-0.011928
26.991508,0.029671,-0.054490,-0.015131
27.001518,-0.018285,-0.048965,-0.021646
27.021568,0.029675,-0.054506,-0.011926
27.031608,-0.017255,-0.058549,-0.028098
27.041648,0.031923,-0.020410,0.003196
27.051658,0.056324,-0.051373,-0.015042
27.061698,0.000903,-0.050115,-0.017326
27.071708,0.013792,-0.022466,-0.001136
27.081748,0.058444,-0.049189,-0.026776
27.091758,0.007397,-0.026753,0.006303
27.101798,0.030765,-0.036273,-0.028928
27.111808,0.008433,-0.030972,-0.005464
27.121848,0.051097,-0.024749,0.004297
27.131858,0.017989,-0.029809,-0.032138
27.141899,0.001007,-0.027825,0.011622
27.161949,-0.000094,-0.034174,-0.000162
27.171989,0.055359,-0.017216,-0.010611
27.181999,-0.025688,-0.024348,-0.027960
27.192039,0.013824,-0.007485,-0.007475
27.202049,0.028648,-0.034156,-0.023583
27.212089,-0.028782,0.001187,-0.005415
27.232139,0.019198,0.007433,-0.004185
27.242149,-0.007537,-0.019123,-0.016134
27.252189,0.018128,0.007452,-0.007392
27.262199,0.012820,0.018174,-0.012697
27.272239,0.023405,-0.008559,-0.012794
27.282279,0.020260,0.004211,-0.000992
27.302329,0.018092,-0.003207,-0.011716
27.312339,0.015991,0.007474,-0.010603
27.322379,0.007458,0.004293,-0.009573
27.332389,0.002067,-0.015960,-0.013957
27.342430,-0.002127,0.005377,-0.006390
27.352439,-0.016037,-0.009484,-0.016112
27.362480,-0.010672,0.005465,-0.019231
27.372489,-0.031002,-0.027610,-0.011967
27.382530,-0.001065,0.003233,-0.005329
27.392570,-0.025705,-0.031833,-0.025859
27.402580,0.000987,-0.016989,-0.021442
27.402580,0.000987,-0.016989,-0.021442
27.422665,-0.028855,-0.028659,-0.029010
27.442715,-0.037425,-0.040425,-0.007772
27.452755,0.013718,-0.030848,-0.035359
27.462765,-0.047980,-0.018095,0.020078
27.472805,0.037122,-0.049099,-0.031108
27.482815,-0.001097,-0.003129,-0.014973
27.492855,0.028628,-0.056714,0.004084
27.512905,0.023357,-0.033182,-0.000092
27.512905,0.023357,-0.033182,-0.000092
27.522945,0.026519,-0.038466,-0.013995
27.532955,-0.016071,-0.028767,-0.003385
27.553005,0.015917,-0.020297,-0.009666
27.553005,0.015917,-0.020297,-0.009666
27.573055,-0.009694,-0.035195,-0.003398
27.593105,-0.040525,-0.021333,0.022220
27.593105,-0.040525,-0.021333,0.022220
27.613186,-0.037326,-0.008422,-0.000143
27.613186,-0.037326,-0.008422,-0.000143
27.633236,-0.055495,-0.024362,-0.004541
27.643246,-0.003172,0.007471,0.003231
27.663296,-0.074538,0.004337,0.037202
27.663296,-0.074538,0.004337,0.037202
27.683346,-0.051196,0.005673,-0.035366
27.693386,0.003165,-0.017143,0.009542
27.703396,-0.033060,0.012022,-0.035286
27.703396,-0.033060,0.012022,-0.035286
27.713436,-0.010626,0.005319,0.011746
27.743527,-0.018108,0.001101,0.005296
27.743527,-0.018108,0.001101,0.005296
27.753536,-0.008649,-0.026514,-0.033264
27.763577,0.008591,0.024545,-0.001997
27.773586,-0.021336,-0.013869,0.011626
27.783627,-0.007524,-0.000851,-0.040617
27.813686,-0.040522,-0.004110,-0.006541
27.813686,-0.040522,-0.004110,-0.006541
27.823727,0.018170,0.015935,0.005467
27.833736,-0.038464,-0.022196,-0.022644
27.843777,-0.027623,0.024587,0.013927
27.853817,-0.049147,-0.028543,-0.028044
27.883877,-0.003472,-0.050825,-0.089980
27.883877,-0.003472,-0.050825,-0.089980
27.893917,0.040582,0.026541,0.005579
27.903927,-0.009671,-0.037422,0.015819
27.913967,-0.056614,-0.022036,-0.044057
27.923977,-0.027651,-0.017336,0.071412
27.954067,-0.008588,-0.033169,0.019047
27.954067,-0.008588,-0.033169,0.019047
27.964108,-0.003299,-0.026597,-0.019363
27.974117,-0.037353,-0.024497,0.011531
27.984158,-0.029944,-0.034051,-0.005585
27.994167,-0.025679,-0.035148,-0.002374
28.024258,0.003126,-0.027792,0.003082
28.024258,0.003126,-0.027792,0.003082
28.034267,-0.037420,-0.041518,-0.002436
28.044308,-0.028867,-0.028705,-0.007693
28.054318,-0.056644,-0.062875,0.010228
28.064358,-0.026684,-0.010562,-0.006533
28.094448,-0.026761,-0.036172,-0.010927
28.094448,-0.026761,-0.036172,-0.010927
28.104458,-0.023514,-0.029876,0.010476
28.114498,-0.019243,-0.025603,0.007303
28.124508,-0.010748,-0.022301,-0.019363
28.134548,-0.014914,-0.017210,0.036197
28.154598,-0.157772,-0.012308,0.000574
28.154598,-0.157772,-0.012308,0.000574
28.164608,0.111922,-0.003638,0.015247
28.174648,0.025530,-0.015009,-0.005342
28.184689,-0.032073,-0.032977,-0.005586
28.194698,-0.044753,-0.008504,0.022269
28.204739,0.002068,-0.026735,0.006289
28.234799,0.004208,-0.017075,-0.005410
28.234799,0.004208,-0.017075,-0.005410
28.244839,0.029886,0.002996,0.023597
28.254849,-0.019239,-0.031004,0.020096
28.264889,-0.048087,-0.038224,-0.014201
28.274899,-0.027645,0.011731,0.022412
28.294949,-0.019202,-0.013887,0.013768
28.304989,-0.029840,-0.008527,0.016969
28.315029,-0.034216,-0.031856,-0.015200
28.325039,-0.016980,0.015983,0.019257
28.335079,0.065005,-0.004493,0.002295
28.345089,-0.043804,-0.041533,0.005024
28.375179,0.016041,0.012702,0.012923
28.375179,0.016041,0.012702,0.012923
28.385189,-0.003221,-0.009611,0.002082
28.395229,-0.001128,-0.033193,0.019068
28.405239,0.033060,0.009524,-0.004136
28.415294,-0.027748,-0.023490,0.017972
28.445385,-0.059687,-0.015957,0.027533
28.445385,-0.059687,-0.015957,0.027533
28.455395,0.023484,0.013812,-0.000938
28.465435,0.016990,-0.030018,0.012724
28.475445,-0.073497,-0.000976,0.030770
28.485485,-0.026766,-0.022153,-0.039703
28.515545,-0.124846,-0.048679,-0.009121
28.515545,-0.124846,-0.048679,-0.009121
28.525585,0.068349,0.030581,0.035585
28.535625,-0.145333,-0.103877,-0.066054
28.545635,-0.072149,0.061684,0.103709
28.555675,0.204353,-0.056870,-0.083025
28.575725,-0.030940,-0.025651,0.025430
28.585735,0.053089,-0.046934,-0.048145
28.595775,-0.128983,-0.027519,0.035833
28.605785,0.013802,-0.011726,-0.013904
28.615825,-0.018278,-0.054375,-0.006717
28.625835,-0.043710,-0.014900,0.019037
28.655926,-0.021333,-0.026806,0.037202
28.655926,-0.021333,-0.026806,0.037202
28.665966,-0.039736,-0.084016,-0.047509
28.675976,-0.062738,0.012675,0.072525
28.686016,0.042349,-0.102654,-0.001437
28.696026,-0.083200,-0.011366,-0.023784
28.726116,-0.189716,-0.029534,0.051678
28.726116,-0.189716,-0.029534,0.051678
28.736126,0.121400,-0.038855,0.003356
28.746166,0.041477,-0.039709,0.012745
28.756176,-0.005277,-0.016305,0.064001
28.766216,0.032892,-0.063196,0.016883
28.786266,0.008414,-0.041682,0.000894
28.786266,0.008414,-0.041682,0.000894
28.796306,0.014005,0.014562,0.072746
28.806316,0.023265,-0.051205,-0.027951
28.816356,0.033075,-0.013145,0.047031
28.826366,-0.012779,-0.009686,0.024488
28.836407,-0.020371,-0.032944,-0.020508
28.866466,-0.012517,0.051960,0.086736
28.866466,-0.012517,0.051960,0.086736
28.876507,0.018197,-0.008926,0.068374
28.886547,0.102243,0.005286,-0.058444
28.896557,-0.071127,0.044584,0.105767
28.906597,-0.031993,0.013091,-0.036346
28.936657,-0.089472,0.028123,-0.014001
28.936657,-0.089472,0.028123,-0.014001
28.946697,0.013008,0.063897,0.029180
28.956707,0.018163,0.012726,0.006520
28.966747,-0.000840,0.056381,0.047266
28.976757,0.012877,0.031996,0.000187
28.996837,-0.028616,0.036211,0.040684
29.006847,0.001125,0.020277,0.002235
29.016887,0.047021,0.040383,0.009935
29.026897,-0.020173,0.009515,0.034172
29.036938,0.025688,0.031889,0.014109
29.046947,-0.002078,0.007376,0.022462
29.066997,0.005329,-0.020485,0.037305
29.077038,-0.020253,0.003305,-0.007518
29.087047,-0.048889,0.016958,0.060833
29.097088,0.045830,-0.004461,0.008651
29.107128,0.018135,-0.008729,0.026714
29.117138,-0.116138,-0.020197,0.059403
29.137188,-0.051990,0.001582,0.152618
29.147228,0.010574,-0.036395,0.010539
29.157238,-0.016079,-0.033049,-0.001269
29.167278,-0.044753,-0.031128,0.063822
29.177288,-0.001275,-0.053196,-0.041915
29.187328,-0.018021,-0.015332,0.092812
29.207378,-0.003355,-0.060892,0.006112
29.207378,-0.003355,-0.060892,0.006112
29.217388,-0.034161,-0.041726,0.039232
29.227428,-0.004379,-0.048093,0.010443
29.237469,-0.008625,-0.052442,0.029638
29.247478,-0.002170,-0.030032,0.028694
29.257519,-0.029972,-0.049043,0.002890
29.277569,0.002030,-0.035233,-0.003366
29.277569,0.002030,-0.035233,-0.003366
29.287578,-0.001123,-0.035365,0.026535
29.297619,-0.018335,-0.078968,-0.000424
29.307628,-0.009624,-0.025721,0.025489
29.317669,-0.000144,-0.062021,0.016798
29.327678,0.005291,-0.022520,0.015931
29.347759,0.021229,-0.049346,0.031872
29.357769,0.013815,-0.017152,0.004230
29.367809,-0.078998,-0.051040,0.007018
29.377819,0.082209,0.030521,0.038827
29.387859,0.017915,-0.067278,-0.013087
29.397869,-0.068180,-0.023576,0.063793
29.417952,-0.006371,-0.026986,0.065016
29.427992,0.005315,-0.012898,0.013840
29.438002,-0.022489,-0.036212,-0.005575
29.448042,0.011722,-0.024808,0.043712
29.458083,-0.052377,-0.039202,-0.030240
29.468092,-0.007396,-0.002334,0.046970
29.488142,-0.058668,-0.028740,0.019998
29.498183,-0.002174,-0.023558,0.014838
29.508192,-0.008599,-0.034212,0.013701
29.518233,-0.025516,0.002037,0.038395
29.528242,0.032913,-0.035253,-0.020372
29.538283,-0.007433,-0.007603,0.031990
29.558333,0.004226,-0.019287,0.010603
29.568373,-0.010632,-0.003280,0.023456
29.578383,0.006324,-0.032114,0.011616
29.588423,0.011736,-0.011927,0.029886
29.598433,-0.011820,-0.042745,0.013652
29.608473,0.022442,0.001891,0.036390
29.638533,0.009524,-0.033208,0.014824
29.638533,0.009524,-0.033208,0.014824
29.648573,0.001021,-0.032178,0.028692
29.658583,0.032008,-0.001288,0.024651
29.668623,0.010535,-0.053507,0.015799
29.678633,-0.006388,-0.022623,0.045809
29.698714,0.019105,-0.034282,0.009505
29.708723,-0.023482,-0.040748,0.051017
29.718764,0.043631,-0.029016,0.008529
29.728774,0.007438,-0.030113,0.039402
29.738814,-0.004358,-0.042774,0.014741
29.748824,-0.014979,-0.031007,0.017972
29.768874,0.021269,-0.029004,0.021286
29.778914,-0.014972,-0.032106,0.024376
29.788924,-0.004239,-0.007603,0.029862
29.798964,0.004178,-0.037447,0.011585
29.809004,-0.013848,-0.018292,0.038331
29.819014,0.059722,0.002919,0.019407
29.839064,0.011797,0.007270,0.035318
29.849104,0.012703,-0.037470,0.010540
29.859114,0.022425,-0.005595,0.038491
29.869154,-0.013851,-0.010741,0.022343
29.879164,0.051177,-0.004534,0.020416
29.889204,0.027691,-0.023726,0.029874
29.909254,0.041569,-0.010915,0.021428
29.919295,0.036273,-0.014234,0.049171
29.929305,-0.033037,-0.004210,0.009503
29.939345,0.024602,0.015798,0.030053
29.949355,-0.008636,-0.041637,0.002984
29.959395,-0.044623,0.020168,0.056587
29.979445,0.023429,0.017218,-0.043651
29.989455,-0.089355,-0.016411,0.143884
29.999495,0.109699,-0.002265,-0.047777
30.009505,-0.040423,0.002040,0.047968
30.019545,0.008567,0.003075,0.021402
30.029585,0.040492,-0.004413,0.002227
30.049635,-0.014934,-0.006374,0.003133
30.059645,0.017061,-0.006544,0.017108
30.069685,0.019306,0.023250,0.038619
30.079695,0.009524,-0.021359,-0.006484
30.089735,-0.038322,0.010748,0.011695
30.099745,-0.003140,-0.012020,0.059754
30.119795,-0.009450,0.006044,0.083323
30.129836,-0.011857,-0.022161,-0.048207
30.139845,-0.023283,0.027564,0.058818
30.149886,-0.032023,-0.032055,0.025397
30.159926,-0.079923,0.017458,-0.023639
30.169936,0.035295,0.028578,0.030143
30.189986,-0.059583,0.026801,0.019190
30.200026,0.019163,-0.018308,0.019194
30.210036,-0.029806,-0.005405,0.034075
30.220076,0.026698,0.043911,-0.044583
30.230086,-0.056448,-0.023640,0.069166
30.240126,-0.064983,-0.012811,0.043557
30.260176,-0.038298,-0.002254,0.051158
30.270216,-0.012762,0.011804,-0.003184
30.280226,-0.006421,-0.021439,0.021245
30.290266,-0.068198,-0.014901,0.036060
30.300276,0.030871,-0.006447,-0.012764
30.310316,-0.038327,0.004300,0.020210
30.330367,-0.069367,-0.040422,0.013504
30.330367,-0.069367,-0.040422,0.013504
30.340376,-0.008469,0.011694,0.017123
30.350417,-0.043795,-0.032944,-0.004550
30.360426,-0.007356,0.005081,0.059824
30.370467,0.027618,-0.020264,-0.024588
30.380507,-0.134332,-0.031748,0.030457
30.400557,0.010482,-0.049028,-0.027977
30.400557,0.010482,-0.049028,-0.027977
30.410567,-0.103302,-0.006380,0.064845
30.420638,0.009428,-0.038289,-0.039679
30.430648,-0.048028,-0.030870,0.011472
30.440688,-0.075637,0.007676,0.009441
30.450698,0.025467,-0.042815,0.003072
30.470748,-0.069404,-0.033842,-0.022784
30.480788,-0.004344,-0.055746,0.047794
30.490828,0.007468,0.015033,-0.022341
30.500838,-0.034282,-0.066116,0.002797
30.510878,-0.031935,-0.009715,0.043663
30.520888,0.009418,-0.043644,-0.036500
30.540938,0.009551,-0.008519,-0.011764
30.550979,0.001972,-0.056592,-0.003467
30.560988,-0.038373,-0.038640,0.067009
30.571029,0.000834,-0.057439,-0.049407
30.581038,-0.073589,-0.034076,0.029545
30.591079,0.024500,-0.029121,0.043727
30.611129,-0.124812,-0.055249,0.025031
30.621169,0.032932,-0.040699,0.002035
30.631179,0.030870,-0.019369,0.009608
30.641219,-0.005417,-0.056795,0.044581
30.651229,0.001928,-0.066148,-0.015263
30.661269,-0.060805,-0.042717,0.041290
30.681319,-0.002151,-0.018244,0.020204
30.691329,-0.051343,-0.077884,0.018717
30.701369,-0.002247,-0.055642,0.024299
30.711379,0.004181,-0.042842,0.023310
30.721419,-0.013048,-0.064849,-0.053754
30.731460,-0.041515,-0.044191,0.113975
30.751510,-0.035335,-0.042456,-0.031277
30.761519,-0.055529,-0.068420,0.052934
30.771560,0.051073,-0.021439,-0.018120
30.781569,0.005265,-0.050443,0.048914
30.791610,-0.002327,-0.068315,-0.005671
30.801619,0.004107,-0.047995,-0.016239
30.821669,0.062795,-0.047325,0.027723
30.831710,0.029728,-0.041746,-0.000115
30.841750,-0.011873,-0.056582,0.003972
30.851760,0.049090,-0.010054,0.059908
30.861800,0.038123,-0.071519,-0.033348
30.871810,0.007355,-0.042777,0.007295
30.891860,-0.001263,-0.069392,-0.004605
30.901900,0.008612,-0.011071,0.076883
30.911910,0.020003,-0.041295,-0.088802
30.921950,-0.054442,-0.044793,0.024207
30.931960,0.022343,-0.032267,0.033024
30.942000,0.015904,-0.038568,0.014816
30.962050,-0.021457,-0.047957,-0.006695
30.972091,-0.040576,-0.040561,0.023197
30.982100,0.031974,-0.014108,0.025659
30.992141,-0.015084,-0.046834,-0.022696
31.002150,-0.014872,0.000970,0.030942
31.012191,-0.016075,-0.033064,0.001936
31.032241,-0.038370,-0.025723,0.045705
31.042251,0.016995,-0.020341,-0.001117
31.052291,0.040473,-0.018357,0.014980
31.062301,-0.009695,-0.050273,0.023236
31.072341,0.009413,-0.049014,-0.030116
31.082381,0.024511,-0.010845,0.018176
31.102431,-0.012887,-0.027659,-0.014053
31.112441,0.014833,-0.045013,0.023329
31.122481,-0.021523,-0.061754,-0.024921
31.132491,0.004263,-0.017247,0.030908
31.142531,0.076641,-0.062422,0.049054
31.152541,-0.047039,-0.036016,-0.030210
31.172591,-0.006452,-0.022421,0.003081
31.182631,-0.005477,-0.059837,0.010384
31.192672,-0.056542,-0.029805,0.017862
31.202681,0.036015,-0.057583,-0.042901
31.212722,-0.074677,-0.049085,0.042290
31.212722,-0.074677,-0.049085,0.042290
31.232772,-0.038604,-0.079919,-0.011167
31.252822,0.009303,-0.076674,-0.052679
31.262832,0.008541,-0.019463,0.044797
31.272872,-0.009783,-0.075847,0.011365
31.282882,-0.016165,-0.060785,-0.007810
31.292922,-0.018273,-0.059775,0.006076
31.302962,0.007328,-0.051310,0.005119
31.323012,-0.003295,-0.039538,0.007281
31.333022,0.007306,-0.058780,0.004015
31.333022,0.007306,-0.058780,0.004015
31.343062,-0.003355,-0.059814,0.003981
31.363112,-0.024684,-0.058626,-0.006755
31.373122,-0.032050,-0.028740,0.001912
31.393172,-0.004269,-0.003200,0.002109
31.403212,-0.015038,-0.042669,-0.000243
31.413222,-0.006464,-0.022380,-0.005465
31.413222,-0.006464,-0.022380,-0.005465
31.433322,-0.015005,-0.029848,-0.001251
31.443332,0.019108,-0.026750,-0.002210
31.453372,-0.012899,-0.041623,0.002972
31.453372,-0.012899,-0.041623,0.002972
31.473422,-0.010710,-0.015959,-0.005446
31.473422,-0.010710,-0.015959,-0.005446
31.483432,-0.016111,-0.041567,-0.006650
31.503482,0.005226,-0.034161,-0.006556
31.503482,0.005226,-0.034161,-0.006556
31.513522,-0.029933,-0.028702,-0.007696
31.533572,-0.047031,-0.045738,-0.006756
31.543612,-0.008574,-0.003055,-0.025675
31.553622,-0.048067,-0.035055,-0.006708
31.563662,0.009493,-0.024492,-0.021454
31.573672,-0.051262,-0.024280,-0.024825
31.583712,-0.025624,-0.017009,0.000917
31.613772,0.007473,-0.004372,0.016023
31.613772,0.007473,-0.004372,0.016023
31.623813,-0.016136,-0.030716,-0.042918
31.633822,-0.004333,-0.022387,-0.005459
31.643863,-0.027750,-0.009481,-0.008667
31.653903,-0.023584,-0.030732,-0.034393
31.683963,0.002003,-0.027606,-0.035376
31.683963,0.002003,-0.027606,-0.035376
31.694003,0.001080,0.006414,-0.002103
31.704013,-0.007554,-0.036306,0.004080
31.714053,-0.024657,-0.014548,-0.068503
31.724063,-0.014862,-0.006602,0.051202
31.754153,-0.017035,-0.015083,0.039405
31.754153,-0.017035,-0.015083,0.039405
31.764193,-0.011904,-0.028477,-0.067465
31.774203,-0.054480,-0.039286,-0.011019
31.784243,0.009594,-0.002192,0.005357
31.794253,-0.059963,-0.075406,-0.047524
31.824344,-0.040786,-0.073292,-0.056007
31.824344,-0.040786,-0.073292,-0.056007
31.834353,0.008616,0.003996,0.052385
31.844394,-0.001356,-0.068020,-0.068691
31.854403,-0.077900,-0.020984,-0.025952
31.864444,0.047895,-0.037650,0.024523
31.894534,-0.040700,-0.063868,-0.016438
31.894534,-0.040700,-0.063868,-0.016438
31.904544,-0.058651,-0.016942,0.009372
31.914584,-0.045007,-0.073410,-0.028245
31.924594,0.003190,-0.010761,0.014913
31.934634,-0.007667,-0.070419,-0.008900
31.964694,-0.014100,-0.058428,-0.055862
31.964694,-0.014100,-0.058428,-0.055862
31.974734,-0.078884,-0.021239,0.028523
31.984744,0.020170,-0.031051,0.003114
31.994784,-0.052390,-0.053166,-0.013215
32.004824,-0.005342,-0.020410,0.028730
32.034884,-0.046987,-0.058801,0.045525
32.034884,-0.046987,-0.058801,0.045525
32.044925,0.018078,0.001146,-0.028786
32.054934,-0.035276,-0.046950,0.015704
32.064975,-0.005325,-0.002149,0.006384
32.074984,-0.019298,-0.029738,-0.021558
32.105075,0.013835,-0.019369,0.021311
32.105075,0.013835,-0.019369,0.021311
32.115115,-0.008516,-0.016163,0.036219
32.125125,-0.002308,-0.043601,-0.037600
32.135165,-0.039343,0.004147,0.053322
32.145175,-0.011889,-0.048990,-0.020561
32.165225,-0.036210,-0.013973,0.043631
32.175265,-0.036454,-0.057363,-0.039896
32.185275,-0.014790,0.013638,0.061980
32.195315,0.016851,-0.064050,-0.017348
32.205325,-0.047974,-0.015959,0.020088
32.215365,0.003181,-0.022579,0.029812
32.245456,-0.028898,-0.044765,0.000777
32.245456,-0.028898,-0.044765,0.000777
32.255465,-0.012816,-0.021418,0.021228
32.265506,-0.002196,-0.031029,0.013734
32.275515,-0.023546,-0.036238,0.000832
32.285556,-0.014945,-0.027885,0.035078
32.315615,-0.026669,-0.020305,0.021195
32.315615,-0.026669,-0.020305,0.021195
32.325656,-0.050234,-0.046786,-0.008906
32.335666,-0.085294,-0.017939,0.012498
32.345706,-0.084363,-0.049833,-0.018629
32.355746,-0.119431,-0.023117,0.001697
32.385806,-0.098103,-0.017836,-0.000356
32.385806,-0.098103,-0.017836,-0.000356
32.395846,-0.072535,-0.020040,-0.003500
32.405856,-0.093850,-0.027512,0.010293
32.415896,-0.018130,0.000094,-0.007527
32.425937,-0.026686,-0.012708,-0.004407
32.456027,-0.040529,-0.011626,0.001969
32.456027,-0.040529,-0.011626,0.001969
32.466068,0.035223,0.009416,0.017233
32.476077,0.039412,-0.010828,0.004331
32.486118,0.011769,0.006283,0.018222
32.496127,0.030970,0.021248,0.002323
32.516178,-0.012647,0.035136,0.031109
32.526218,0.076806,0.027542,-0.004998
32.536228,0.018076,0.011926,-0.050100
32.546268,-0.090382,0.017938,0.107725
32.556278,-0.029578,0.091898,0.008899
32.566318,0.151325,0.008183,-0.027317
32.586368,0.051131,0.018231,-0.051047
32.596408,-0.053952,0.060300,0.158232
32.606418,-0.086151,0.051420,0.025642
32.616458,0.042749,0.067353,-0.044428
32.626468,-0.044429,0.079876,0.077166
32.636508,0.022458,0.072936,-0.081845
32.656558,-0.055170,0.085559,0.012003
32.666568,0.035237,0.039536,-0.028557
32.676608,0.024860,0.091464,0.063526
32.686618,0.001117,0.039692,-0.038265
32.696658,0.010811,0.041493,0.025863
32.706699,-0.008384,0.052361,-0.000844
32.726749,0.001203,0.037263,0.023680
32.736759,0.022507,0.041541,0.007736
32.746799,0.016038,0.012713,0.010787
32.756809,0.011798,0.014807,0.022535
32.766849,0.025611,-0.000184,0.021434
32.776859,0.038441,0.012574,0.024735
32.796909,0.034163,0.005092,0.028960
32.806949,0.043622,-0.035449,0.013840
32.816989,0.007444,-0.030134,0.043675
32.826999,-0.009505,0.022377,0.017171
32.837039,0.075597,-0.033402,0.010733
32.847049,-0.013640,0.026293,0.095158
32.867099,0.061914,-0.009129,0.081312
32.867099,0.061914,-0.009129,0.081312
32.877139,0.006440,-0.002319,0.034190
32.887149,0.014879,-0.017150,0.003165
32.897189,0.072587,0.002639,0.069647
32.907199,0.009512,-0.024553,-0.008636
32.917240,0.045911,0.000671,0.052473
32.937290,0.006321,-0.031026,0.007348
32.947330,0.056649,0.025158,0.061164
32.957340,0.037269,-0.019405,0.012830
32.967380,0.010715,0.003017,0.032090
32.977390,0.078983,0.016618,0.045162
32.987430,0.002129,-0.014001,0.023440
33.007480,0.044818,0.005068,0.026853
33.017490,0.010738,0.007254,0.039588
33.027530,0.037400,0.012497,0.041823
33.037570,0.028844,0.006157,0.033223
33.047580,0.020297,-0.001291,0.033165
33.057620,0.022462,0.006138,0.041751
33.077670,0.014982,-0.000241,0.040632
33.087680,0.029948,0.016803,0.039686
33.097720,0.004276,-0.012981,0.031997
33.107730,0.009641,-0.008802,0.048055
33.117771,0.025627,-0.001313,0.034247
33.127780,0.008545,-0.017322,0.043738
33.157871,0.001068,-0.022632,0.042624
33.157871,0.001068,-0.022632,0.042624
33.167911,0.007479,-0.009777,0.029884
33.177921,-0.000025,-0.033313,0.043639
33.187961,0.019212,-0.009846,0.036326
