time_tick,gyr_X_value,gyr_Y_value,gyr_Z_value
0.015354,-0.073500,0.014117,0.000932
0.035404,0.034008,-0.036425,0.000990
0.035404,0.034008,-0.036425,0.000990
0.045444,-0.035184,-0.007387,0.005209
0.055485,0.018021,-0.039608,0.007340
0.065494,-0.013883,-0.012795,0.005242
0.075535,-0.001136,-0.026705,0.002007
0.085544,-0.012854,-0.023453,-0.000146
0.095585,-0.003263,-0.025635,0.003074
0.105595,-0.005396,-0.024545,-0.000131
0.115635,-0.006475,-0.024501,-0.008680
0.125645,-0.009675,-0.019095,-0.020413
0.135685,-0.000095,-0.029861,-0.008687
0.145695,-0.007527,-0.022387,-0.003331
0.155735,-0.012871,-0.024475,-0.009765
0.165745,0.004156,-0.023372,-0.028941
0.175785,-0.021356,-0.020272,0.010527
0.185825,0.005234,-0.034186,-0.001215
0.195835,-0.011764,-0.018147,0.006291
0.205875,0.013842,-0.015082,0.018127
0.215885,-0.032997,-0.019419,0.063910
0.225925,-0.013995,-0.027519,-0.042897
0.235935,0.021222,-0.025624,-0.016086
0.245975,-0.021319,-0.015003,0.025507
0.255985,0.004178,-0.030984,-0.000135
0.266025,-0.014986,-0.015905,-0.014003
0.276035,-0.002231,-0.030917,-0.009766
0.286075,-0.011785,-0.024544,0.004124
0.296085,-0.002202,-0.023467,-0.004390
0.306126,-0.003292,-0.022310,-0.022547
0.316166,-0.012872,-0.026626,-0.006571
0.326176,-0.004311,-0.025687,0.014822
0.336216,-0.009642,-0.017046,-0.002244
0.346241,-0.001141,-0.026690,-0.001198
0.356281,-0.005374,-0.018153,0.003104
0.366291,-0.000082,-0.030980,0.001990
0.376331,-0.011780,-0.023482,0.005197
0.386341,-0.004329,-0.024554,0.000940
0.396381,-0.002187,-0.021362,0.002029
0.406391,-0.010708,-0.019198,0.002016
0.416431,0.004178,-0.032062,0.001996
0.426441,-0.017090,-0.015984,0.004150
0.436481,0.005257,-0.026721,0.000956
0.446491,-0.012833,-0.018133,0.004152
0.456531,-0.009664,-0.026672,0.000915
0.466571,-0.001130,-0.025647,0.004148
0.476581,-0.011776,-0.020263,0.002008
0.486621,0.002064,-0.025647,0.002021
0.496631,-0.014956,-0.013845,0.002030
0.506672,0.005241,-0.033133,0.001994
0.516681,-0.017095,-0.018125,0.005208
0.526722,0.000995,-0.025634,-0.000119
0.536731,-0.005380,-0.020288,0.003094
0.546772,-0.011772,-0.019200,0.003081
0.556781,0.003122,-0.029933,0.004140
0.566822,-0.012836,-0.019201,0.004147
0.576831,0.005257,-0.026721,0.000956
0.586872,-0.007506,-0.018146,0.003098
0.596912,-0.004341,-0.028825,0.000920
0.606922,-0.005383,-0.022434,0.005220
0.616962,-0.005389,-0.022414,0.000947
0.626972,-0.001132,-0.024564,0.000949
0.637012,-0.010702,-0.017062,0.002026
0.647022,0.002053,-0.030997,0.004132
0.657062,-0.012835,-0.018128,0.003083
0.667072,0.005254,-0.027788,0.000951
0.677112,-0.009640,-0.019207,0.003087
0.687122,-0.010723,-0.025611,0.003054
0.697162,-0.000067,-0.026718,0.004146
0.707172,-0.012835,-0.017050,0.000952
0.717212,0.005263,-0.024585,0.000966
0.717212,0.005263,-0.024585,0.000966
0.737262,0.000984,-0.032062,0.004124
0.747303,-0.010704,-0.020286,0.006284
0.757312,-0.007523,-0.023475,0.000936
0.767353,-0.003251,-0.020285,0.000963
0.777362,-0.010701,-0.018140,0.004157
0.787403,0.004183,-0.030999,0.003070
0.797413,-0.014954,-0.014928,0.005229
0.807453,0.004192,-0.026717,0.000953
0.817463,-0.012829,-0.015993,0.003094
0.827503,-0.007531,-0.026684,0.001989
0.837513,-0.006457,-0.024557,0.003071
0.847553,-0.007512,-0.019204,0.000957
0.857593,-0.000063,-0.023499,0.000957
0.857593,-0.000063,-0.023499,0.000957
0.877643,0.004181,-0.030994,0.002001
0.887653,-0.011763,-0.017074,0.005228
0.897693,0.003118,-0.028844,-0.000128
0.907703,-0.016040,-0.019171,-0.000135
0.917743,-0.005383,-0.020278,0.000957
0.927753,0.003113,-0.032058,0.001993
0.937793,-0.020298,-0.019172,0.003058
0.947803,0.002066,-0.024574,0.000958
0.957843,-0.010699,-0.014916,-0.000100
0.967853,0.004194,-0.029956,0.008416
0.977893,-0.006432,-0.018174,0.008442
0.987934,0.005259,-0.027804,0.004156
0.997944,-0.010698,-0.017072,0.004163
1.007984,-0.005392,-0.022404,-0.001189
1.017994,-0.006480,-0.029871,-0.002296
1.028034,-0.016023,-0.014914,0.003090
1.038044,0.003139,-0.022447,0.002039
1.048084,-0.006450,-0.021348,0.002018
1.058094,-0.005383,-0.022434,0.005220
1.068134,-0.002205,-0.027769,0.001999
1.078144,-0.016018,-0.016007,0.008426
1.088184,0.005263,-0.023507,-0.001165
1.098194,-0.008579,-0.020273,0.002017
1.108234,-0.001142,-0.027763,-0.000134
1.118274,-0.009649,-0.022411,0.003072
1.128284,-0.008579,-0.021351,0.004148
1.138324,-0.001145,-0.027753,-0.002271
1.148334,-0.006441,-0.019222,0.004164
1.158374,-0.000079,-0.028834,-0.000137
1.168384,-0.010696,-0.016005,0.004168
1.178424,0.002066,-0.025652,0.003089
1.188434,-0.009652,-0.021322,-0.001196
1.198475,-0.007525,-0.024548,0.002000
1.208484,-0.004331,-0.024548,-0.000128
1.218525,-0.009639,-0.018134,0.002024
1.228534,0.001001,-0.023498,-0.000108
1.238575,-0.003263,-0.024557,0.000943
1.248615,-0.002203,-0.027774,0.003067
1.258625,-0.013895,-0.015989,0.003091
1.268665,0.005256,-0.027794,0.002019
1.278675,-0.014966,-0.017043,0.000946
1.288715,-0.003257,-0.023499,0.003084
1.298725,-0.005390,-0.023487,0.002010
1.308765,-0.007510,-0.020287,0.004156
1.318775,-0.001131,-0.025642,0.003080
1.328815,-0.009649,-0.022411,0.003072
1.338825,-0.002206,-0.027764,0.000931
1.348899,-0.008565,-0.017084,0.005237
1.358909,-0.001133,-0.025637,0.002012
1.368950,-0.010718,-0.022397,0.000933
1.378989,-0.007520,-0.023485,0.003073
1.388999,-0.000070,-0.026708,0.002010
1.399041,-0.018155,-0.015985,0.005215
1.409050,0.006314,-0.029928,0.000944
1.419090,-0.016029,-0.015972,0.000948
1.429099,0.002052,-0.028841,-0.000131
1.439141,-0.010710,-0.020266,0.002011
1.449149,-0.007513,-0.020277,0.002020
1.459190,-0.000067,-0.025640,0.002015
1.469200,-0.009636,-0.017066,0.002029
1.479241,0.002054,-0.028846,0.000937
1.489249,-0.014954,-0.014928,0.005229
1.499290,-0.000063,-0.024578,0.003088
1.509331,-0.004325,-0.022413,-0.000118
1.519341,-0.011778,-0.021336,0.003071
1.529380,-0.002199,-0.025633,0.002009
1.539391,-0.017092,-0.015979,0.003082
1.549431,0.005252,-0.029934,0.003078
1.559440,-0.013904,-0.018115,0.000944
1.569480,-0.001145,-0.028831,-0.000140
1.579491,-0.010705,-0.018130,0.002021
1.589531,-0.010722,-0.024538,0.001991
1.599540,-0.002194,-0.023493,0.000951
1.609581,-0.007513,-0.019198,-0.000112
1.619591,0.003119,-0.029922,0.002003
1.629630,-0.016025,-0.015987,0.004153
1.639671,0.007382,-0.029936,0.002015
1.649681,-0.013902,-0.017042,-0.000119
1.659722,-0.004332,-0.026700,0.003066
1.669730,-0.006452,-0.021343,0.000949
1.679772,-0.009643,-0.021353,0.005213
1.689781,-0.004336,-0.026684,-0.000138
1.699821,-0.006447,-0.020280,0.002023
1.709831,-0.003275,-0.027751,-0.001209
1.719872,-0.010701,-0.018140,0.004157
1.729882,-0.004326,-0.024564,0.003076
1.739921,-0.008595,-0.025608,0.000923
1.749931,-0.007515,-0.020271,0.000952
1.759972,0.000991,-0.027775,0.000940
1.769981,-0.018159,-0.017048,0.004142
1.780021,0.005251,-0.028856,0.000946
1.790062,-0.016029,-0.017050,0.003080
1.800072,0.002048,-0.030982,0.000927
1.810111,-0.009636,-0.018144,0.004160
1.820122,-0.005392,-0.023482,0.000942
1.830162,-0.006452,-0.021343,0.000949
1.840171,-0.008585,-0.022409,0.002007
1.850211,-0.003260,-0.023489,0.000948
1.860222,-0.009637,-0.019217,0.005224
1.870262,-0.004319,-0.021355,0.002023
1.880271,-0.006458,-0.023479,0.000939
1.890312,-0.010722,-0.024538,0.001991
1.900322,-0.004323,-0.023496,0.003082
1.910362,-0.008577,-0.020278,0.003085
1.920402,-0.002194,-0.023493,0.000951
1.930413,-0.007517,-0.022417,0.003078
1.940453,-0.004339,-0.027752,-0.000143
1.950462,-0.007499,-0.017088,0.005240
1.960502,-0.004322,-0.021345,-0.000113
1.970513,-0.003257,-0.023499,0.003084
1.980552,-0.010718,-0.022397,0.000933
1.990562,0.003144,-0.022462,0.005243
2.000603,-0.016016,-0.010627,-0.000095
2.010613,0.003111,-0.032053,0.000925
2.020652,-0.016036,-0.019181,0.002001
2.030662,0.005254,-0.027788,0.000951
2.040703,-0.014936,-0.006369,0.002065
2.050742,-0.010725,-0.024528,-0.000146
2.060752,0.002057,-0.028856,0.003074
2.070793,-0.009651,-0.021327,-0.000128
2.080803,-0.004289,-0.010676,0.002074
2.090843,-0.004320,-0.021350,0.000955
2.100852,0.000990,-0.028848,0.002003
2.110894,-0.002180,-0.017075,-0.001155
2.120902,-0.014955,-0.012772,0.000966
2.130943,-0.001132,-0.024564,0.000949
2.140953,0.003130,-0.025651,0.002024
2.150994,-0.021329,-0.004197,-0.001147
2.161002,0.014856,-0.025694,0.003124
2.171043,-0.010706,-0.019203,0.003084
2.181084,0.001026,-0.014960,0.001000
2.191094,-0.006443,-0.018139,0.000965
2.201133,-0.007512,-0.019204,0.000957
2.211144,0.001038,-0.009610,-0.001111
2.221184,-0.007500,-0.016010,0.003108
2.231193,-0.011769,-0.015976,-0.001176
2.241233,-0.009619,-0.009580,-0.000072
2.251244,-0.002166,-0.014964,0.004196
2.261284,-0.002166,-0.010657,-0.003261
2.271293,-0.013879,-0.007420,-0.002210
2.281334,-0.001104,-0.014958,0.002063
2.291344,-0.004262,0.000009,0.001056
2.301383,-0.007485,-0.010670,0.003133
2.311424,-0.002160,-0.008521,-0.003251
2.321434,-0.012779,0.003240,0.001048
2.331475,0.006376,-0.012887,0.010639
2.341483,-0.021303,0.010799,-0.010690
2.351524,0.007455,-0.008623,0.011730
2.361533,-0.021321,0.006548,-0.014983
2.371574,-0.008524,-0.003212,0.007439
2.381583,-0.029821,0.009723,-0.003241
2.391624,-0.036234,-0.004200,0.009494
2.401634,-0.013799,0.019258,0.002189
2.411674,-0.023453,-0.003138,0.002057
2.421684,-0.005278,0.019245,-0.000992
2.431724,-0.015969,0.004303,0.004249
2.441764,-0.007420,0.017131,-0.004212
2.451774,-0.024479,0.008588,0.007450
2.461814,-0.014866,0.023573,-0.006339
2.471824,-0.019141,0.012852,0.005349
2.491874,-0.001026,0.013881,0.001131
2.501914,-0.026595,0.022548,-0.007444
2.511924,0.013895,0.014911,-0.000959
2.521964,-0.032998,0.018287,-0.005346
2.531974,0.009636,0.015988,0.000102
2.542014,-0.019154,0.012893,-0.003197
2.562064,-0.009557,0.013924,-0.002097
2.572105,-0.009567,0.009648,-0.001049
2.582114,0.008528,0.001045,-0.001040
2.592155,-0.030877,0.016160,-0.008555
2.602165,0.022376,-0.003287,0.002183
2.612205,-0.026649,0.003331,-0.008604
2.632255,-0.014960,-0.010600,-0.006501
2.642265,-0.007478,-0.007461,0.002080
2.652305,-0.002188,-0.017050,-0.006496
2.662315,-0.027739,-0.009516,-0.001190
2.672355,0.013780,-0.025660,-0.003288
2.682365,-0.024588,-0.022306,-0.008719
2.702415,-0.011823,-0.031964,-0.007661
2.712455,-0.013912,-0.021319,0.000929
2.722495,-0.001202,-0.044809,-0.008761
2.732505,-0.033114,-0.023357,-0.006611
2.742545,0.012657,-0.047020,-0.002324
2.752555,-0.038463,-0.026508,-0.014118
2.772605,-0.043798,-0.026470,-0.018406
2.782645,0.020100,-0.050218,-0.008728
2.792655,-0.040603,-0.029705,-0.014140
2.802696,0.013729,-0.042732,-0.006573
2.812705,-0.031031,-0.032904,-0.021606
2.822746,0.014806,-0.042771,0.000907
2.842796,0.020118,-0.045966,-0.004435
2.852836,-0.029965,-0.031830,-0.023734
2.862846,0.016920,-0.043800,-0.008706
2.872886,-0.029973,-0.035038,-0.022681
2.882896,0.015863,-0.040593,-0.008694
2.892936,-0.033168,-0.031804,-0.026947
2.912986,-0.038484,-0.023208,-0.034399
2.922996,0.031831,-0.047047,-0.009749
2.933036,-0.045930,-0.017844,-0.034394
2.933036,-0.045930,-0.017844,-0.034394
2.953086,-0.041654,-0.013591,-0.033294
2.953086,-0.041654,-0.013591,-0.033294
2.963096,0.030750,-0.046998,-0.019365
2.993186,-0.025665,-0.013648,-0.032182
2.993186,-0.025665,-0.013648,-0.032182
3.013236,-0.019274,-0.017966,-0.026844
3.023277,0.003026,-0.038248,-0.043969
3.033286,-0.003296,-0.021222,-0.026815
3.043327,-0.005491,-0.030710,-0.051435
3.043327,-0.005491,-0.030710,-0.051435
3.063377,-0.007605,-0.024295,-0.051410
3.063377,-0.007605,-0.024295,-0.051410
3.073386,0.008388,-0.029753,-0.037505
3.083427,-0.012914,-0.021110,-0.043932
3.093436,0.017947,-0.033985,-0.052454
3.113517,0.009400,-0.034969,-0.064232
3.133567,-0.000184,-0.029578,-0.068506
3.143577,-0.009723,-0.020022,-0.050328
3.143577,-0.009723,-0.020022,-0.050328
3.153617,-0.002289,-0.021038,-0.066335
3.163627,0.001982,-0.021077,-0.060982
3.173667,-0.002273,-0.016781,-0.063110
3.183677,0.005156,-0.024246,-0.070603
3.213767,0.003073,-0.013620,-0.057739
3.213767,0.003073,-0.013620,-0.057739
3.223777,-0.007679,-0.025135,-0.099484
3.233817,0.008374,-0.022166,-0.060970
3.243858,-0.025760,-0.012272,-0.097337
3.253867,0.032844,-0.030728,-0.073761
3.273917,0.045610,-0.037157,-0.078029
3.273917,0.045610,-0.037157,-0.078029
3.283958,-0.055577,0.002827,-0.108030
3.293968,0.041328,-0.043546,-0.079140
3.304008,-0.051306,0.009251,-0.114397
3.314018,0.041311,-0.046724,-0.084496
3.324058,-0.052366,0.011390,-0.114390
3.354135,0.027444,-0.039102,-0.105862
3.354135,0.027444,-0.039102,-0.105862
3.364174,-0.009760,0.002719,-0.116449
3.374214,0.018904,-0.036878,-0.118694
3.384225,-0.007644,-0.001550,-0.118600
3.394265,0.030635,-0.032629,-0.121846
3.414315,0.032774,-0.029427,-0.122893
3.424325,-0.007680,-0.004668,-0.136775
3.434364,0.039157,-0.032642,-0.125027
3.444374,-0.030094,-0.008801,-0.150743
3.454415,0.051943,-0.031595,-0.129260
3.464425,-0.039706,-0.010860,-0.160393
3.494516,0.063653,-0.029437,-0.142036
3.494516,0.063653,-0.029437,-0.142036
3.504524,-0.038668,-0.011856,-0.176418
3.514565,0.061512,-0.028321,-0.150582
3.524606,-0.017373,-0.020473,-0.175332
3.534616,0.041273,-0.017521,-0.162337
3.554665,0.022080,-0.012043,-0.178388
3.564706,0.036936,-0.034508,-0.180589
3.574715,-0.007768,-0.008697,-0.188068
3.584755,0.052922,-0.036711,-0.177351
3.594766,-0.006726,-0.011858,-0.197694
3.604806,0.060378,-0.031334,-0.190123
3.624855,0.055072,-0.021696,-0.192229
3.634866,0.005991,-0.033213,-0.207374
3.644905,0.041227,-0.018452,-0.191184
3.654945,0.028358,-0.032162,-0.219058
3.664956,0.037990,-0.025856,-0.204046
3.674996,0.035827,-0.033290,-0.211565
3.695046,0.065642,-0.046227,-0.206202
3.705056,-0.015302,-0.017059,-0.221243
3.715097,0.073085,-0.046195,-0.217932
3.725105,-0.002547,-0.020223,-0.238314
3.735147,0.067780,-0.038713,-0.215775
3.745156,0.006985,-0.035145,-0.251177
3.765205,0.029365,-0.039519,-0.244727
3.765205,0.029365,-0.039519,-0.244727
3.775247,0.030495,-0.019258,-0.239287
3.785287,0.063454,-0.043887,-0.247858
3.795296,0.014504,-0.015961,-0.247861
3.805337,0.079430,-0.049288,-0.245703
3.815347,0.010236,-0.011625,-0.258534
3.845437,0.093279,-0.046084,-0.255263
3.845437,0.093279,-0.046084,-0.255263
3.855447,-0.005809,-0.020005,-0.282119
3.865486,0.076241,-0.039611,-0.257416
3.875497,0.009081,-0.026421,-0.290654
3.885537,0.058121,-0.035240,-0.265991
3.915628,0.030363,-0.038232,-0.291719
3.915628,0.030363,-0.038232,-0.291719
3.925637,0.001616,-0.020996,-0.303467
3.935677,0.060165,-0.046817,-0.303428
3.945687,-0.012254,-0.017672,-0.319513
3.955728,0.056973,-0.043593,-0.305558
3.975777,0.051610,-0.043469,-0.328005
3.975777,0.051610,-0.043469,-0.328005
3.985787,-0.005884,-0.021924,-0.328061
3.995828,0.063337,-0.042439,-0.327967
4.005837,0.000450,-0.033601,-0.347327
4.015878,0.068652,-0.038104,-0.345023
4.025888,0.024921,-0.036778,-0.369707
4.055978,0.065443,-0.041287,-0.347184
4.055978,0.065443,-0.041287,-0.347184
4.066018,0.030222,-0.048557,-0.366543
4.076027,0.055861,-0.032672,-0.355715
4.086068,0.060052,-0.056155,-0.361156
4.096078,0.033418,-0.041021,-0.381454
4.116127,0.031304,-0.036763,-0.377167
4.116127,0.031304,-0.036763,-0.377167
4.126168,0.076015,-0.057209,-0.375003
4.136178,0.034506,-0.035711,-0.376085
4.146217,0.077044,-0.062481,-0.389981
4.156227,0.032357,-0.035648,-0.387841
4.166268,0.088856,-0.039101,-0.373814
4.186317,0.084583,-0.042286,-0.374909
4.196359,0.035520,-0.036625,-0.409201
4.206369,0.070746,-0.028297,-0.387700
4.216408,0.056830,-0.039908,-0.407021
4.226418,0.067508,-0.032467,-0.406956
4.236459,0.074956,-0.036758,-0.408024
4.266519,0.055756,-0.031260,-0.428347
4.276559,0.084520,-0.038854,-0.422963
4.286568,0.033406,-0.018362,-0.430485
4.296608,0.116446,-0.051733,-0.431481
4.306619,0.044053,-0.018361,-0.437933
4.326698,0.089811,-0.043063,-0.440059
4.336709,0.118578,-0.043126,-0.446389
4.346749,0.117527,-0.043168,-0.436779
4.356783,0.110055,-0.040952,-0.448539
4.366823,0.121704,-0.062298,-0.459290
4.376833,0.093006,-0.037678,-0.451775
4.406924,0.101489,-0.049417,-0.459285
4.416933,0.074813,-0.048156,-0.481785
4.426974,0.117441,-0.056899,-0.468890
4.436983,0.071631,-0.046040,-0.475375
4.447024,0.098239,-0.058937,-0.476430
4.477114,0.103563,-0.061090,-0.476426
4.477114,0.103563,-0.061090,-0.476426
4.487124,0.069480,-0.043817,-0.492462
4.497164,0.117434,-0.053645,-0.479557
4.507174,0.065190,-0.053414,-0.492519
4.517214,0.119519,-0.061046,-0.496678
4.537264,0.075823,-0.052290,-0.511712
4.547274,0.102504,-0.050337,-0.491333
4.557314,0.085429,-0.050210,-0.506335
4.567324,0.095054,-0.041729,-0.499859
4.577364,0.097163,-0.047050,-0.505219
4.587374,0.084378,-0.040560,-0.513769
4.617464,0.116382,-0.040760,-0.493386
4.617464,0.116382,-0.040760,-0.493386
4.627505,0.091942,-0.024753,-0.474150
4.637514,0.080299,-0.037899,-0.396265
4.647555,0.044189,-0.026333,-0.333285
4.657564,0.005943,-0.026598,-0.251140
4.677614,-0.049171,-0.088792,0.065673
4.687655,-0.410173,-0.064878,0.223952
4.697665,-0.505271,-0.151057,0.220077
4.707705,0.288633,-0.131589,-0.600161
4.717715,-0.109651,-0.027910,-0.571929
4.727755,0.056673,-0.026486,-0.535144
4.747805,0.073660,-0.041411,-0.552259
4.757845,0.090672,-0.047803,-0.567197
4.767855,0.092812,-0.049992,-0.557587
4.777895,0.084314,-0.039280,-0.558628
4.787905,0.105574,-0.054254,-0.568254
4.797945,0.068311,-0.044562,-0.559766
4.817995,0.088523,-0.053126,-0.569364
4.828005,0.114106,-0.051068,-0.570352
4.838045,0.113041,-0.052143,-0.568224
4.848055,0.117295,-0.053204,-0.572490
4.858095,0.106596,-0.061658,-0.584310
4.868136,0.120494,-0.055376,-0.567150
4.888186,0.099134,-0.058399,-0.590724
4.898196,0.124743,-0.054266,-0.578884
4.908236,0.100155,-0.070109,-0.599323
4.918246,0.078857,-0.064711,-0.597219
4.928286,0.103384,-0.060524,-0.596064
4.938296,0.101233,-0.060456,-0.608888
4.958346,0.073519,-0.062512,-0.606838
4.968386,0.093709,-0.071005,-0.631391
4.978396,0.066066,-0.060357,-0.605780
4.988436,0.088398,-0.069965,-0.621787
4.998476,0.089459,-0.069953,-0.624989
5.008486,0.084145,-0.065674,-0.622847
5.038576,0.089458,-0.067797,-0.629251
5.038576,0.089458,-0.067797,-0.629251
5.048586,0.127830,-0.072239,-0.619552
5.058626,0.100143,-0.059298,-0.627045
5.068636,0.118233,-0.067886,-0.630240
5.078676,0.111853,-0.063603,-0.628101
5.088686,0.093732,-0.060305,-0.635613
5.098727,0.108626,-0.072116,-0.632423
5.108736,0.085192,-0.067773,-0.631399
5.118777,0.066000,-0.067686,-0.636793
5.128786,0.112907,-0.061415,-0.639838
5.138827,0.115024,-0.066762,-0.639858
5.148867,0.087313,-0.070979,-0.632477
5.168917,0.112938,-0.057204,-0.627000
5.168917,0.112938,-0.057204,-0.627000
5.178927,0.123557,-0.064654,-0.639824
5.188967,0.124653,-0.059368,-0.629114
5.198977,0.116121,-0.056091,-0.638736
5.209017,0.145953,-0.060465,-0.637606
5.219027,0.125734,-0.051881,-0.632280
5.249117,0.138536,-0.049807,-0.627962
5.249117,0.138536,-0.049807,-0.627962
5.259127,0.151301,-0.054079,-0.636493
5.269167,0.137448,-0.056196,-0.631200
5.279207,0.149190,-0.046597,-0.636463
5.289217,0.144897,-0.060492,-0.631200
5.309267,0.147040,-0.056227,-0.631174
5.319308,0.134267,-0.051929,-0.627984
5.329317,0.132116,-0.055090,-0.635482
5.339358,0.120377,-0.065777,-0.625952
5.349381,0.108654,-0.057125,-0.640898
5.359422,0.133191,-0.054046,-0.631202
5.389481,0.117218,-0.045420,-0.637614
5.389481,0.117218,-0.045420,-0.637614
5.399522,0.110809,-0.051817,-0.635526
5.409562,0.122530,-0.054001,-0.633367
5.419572,0.124688,-0.045475,-0.631185
5.429612,0.117227,-0.045451,-0.631205
5.459672,0.116163,-0.044374,-0.632271
5.459672,0.116163,-0.044374,-0.632271
5.469712,0.111871,-0.050732,-0.639791
5.479722,0.111899,-0.043282,-0.634414
5.489762,0.125775,-0.041237,-0.624752
5.499772,0.128942,-0.047614,-0.633319
5.519822,0.112926,-0.059320,-0.631283
5.529862,0.115081,-0.055090,-0.623779
5.539872,0.131090,-0.050906,-0.616238
5.549912,0.127870,-0.059439,-0.616287
5.559953,0.120415,-0.057279,-0.616297
5.569962,0.122563,-0.054107,-0.610935
5.590012,0.118319,-0.055232,-0.595997
5.600053,0.135345,-0.059509,-0.606653
5.610063,0.109787,-0.058419,-0.593900
5.620103,0.137507,-0.055305,-0.593808
5.630113,0.137471,-0.071349,-0.588543
5.640153,0.089526,-0.065859,-0.587581
5.660203,0.138545,-0.072456,-0.581068
5.670213,0.084193,-0.072289,-0.579081
5.680253,0.120429,-0.074558,-0.575787
5.690293,0.104450,-0.070224,-0.577947
5.700303,0.088453,-0.078756,-0.569486
5.710343,0.117215,-0.086346,-0.565169
5.730393,0.086343,-0.077742,-0.556668
5.730393,0.086343,-0.077742,-0.556668
5.740403,0.121485,-0.087458,-0.558754
5.750443,0.100187,-0.080981,-0.558782
5.760453,0.083139,-0.082019,-0.553493
5.770493,0.096979,-0.085247,-0.557743
5.780503,0.101290,-0.072486,-0.549125
5.810594,0.067192,-0.070245,-0.548140
5.820634,0.099147,-0.075673,-0.551282
5.830644,0.107667,-0.082144,-0.543812
5.840684,0.067214,-0.063852,-0.544905
5.850694,0.103405,-0.077828,-0.550212
5.880784,0.077845,-0.076728,-0.539596
5.890794,0.098126,-0.069348,-0.533095
5.900834,0.104518,-0.068286,-0.536277
5.910844,0.105586,-0.076914,-0.519224
5.920884,0.086411,-0.067184,-0.530981
5.940934,0.124785,-0.074865,-0.513820
5.950974,0.101379,-0.065229,-0.503157
5.960984,0.115237,-0.067435,-0.497788
5.971024,0.130150,-0.072843,-0.493499
5.981034,0.120595,-0.062158,-0.488134
5.991075,0.103528,-0.069598,-0.483944
6.011125,0.101446,-0.056822,-0.474275
6.011125,0.101446,-0.056822,-0.474275
6.021134,0.116370,-0.061187,-0.464641
6.031175,0.107845,-0.061165,-0.463596
6.041184,0.103609,-0.055852,-0.455037
6.051225,0.104684,-0.048344,-0.462476
6.061234,0.103660,-0.048472,-0.434706
6.081284,0.101532,-0.044169,-0.440032
6.091325,0.078104,-0.045231,-0.425147
6.101365,0.096229,-0.045310,-0.420824
6.111375,0.085577,-0.042062,-0.422975
6.121415,0.079217,-0.041074,-0.401624
6.131425,0.114396,-0.039058,-0.400449
6.141465,0.083474,-0.047531,-0.394165
6.151475,0.086683,-0.046504,-0.387742
6.161515,0.102701,-0.040189,-0.379122
6.171525,0.104823,-0.045550,-0.375937
6.181565,0.067532,-0.045470,-0.367494
6.191575,0.099515,-0.046677,-0.359934
6.201615,0.092088,-0.041374,-0.347111
6.211625,0.087820,-0.040267,-0.352458
6.221665,0.070778,-0.046710,-0.333308
6.231706,0.086774,-0.042480,-0.335380
6.241715,0.068667,-0.041384,-0.329016
6.251756,0.070780,-0.053178,-0.320520
6.261765,0.064441,-0.036101,-0.314047
6.271806,0.074008,-0.042514,-0.319392
6.291856,0.045251,-0.045716,-0.300259
6.301866,0.049510,-0.047871,-0.299189
6.311906,0.044190,-0.048957,-0.291732
6.321916,0.034637,-0.040433,-0.281036
6.331956,0.037785,-0.062910,-0.272588
6.341966,0.029296,-0.048994,-0.273613
6.362067,0.025029,-0.056511,-0.261910
6.372077,0.032493,-0.054390,-0.264016
6.382117,0.045272,-0.057630,-0.265064
6.392127,0.049550,-0.058767,-0.253308
6.402167,0.030391,-0.046938,-0.257577
6.412177,0.023981,-0.056564,-0.250163
6.422217,0.044247,-0.050217,-0.251145
6.432227,0.021833,-0.058657,-0.257657
6.442267,0.013346,-0.058756,-0.230975
6.452277,0.021852,-0.053333,-0.254427
6.462317,0.029330,-0.052335,-0.244787
6.472327,0.016563,-0.053442,-0.227736
6.482367,0.029313,-0.059820,-0.242686
6.502418,0.044286,-0.051416,-0.223377
6.512458,0.031492,-0.052438,-0.224486
6.522468,0.016586,-0.056747,-0.206388
6.532508,0.038983,-0.045017,-0.218021
6.542518,0.035768,-0.057877,-0.206340
6.552558,0.013429,-0.050400,-0.191412
6.582618,0.040095,-0.047323,-0.182778
6.592658,0.046516,-0.043118,-0.173126
6.602668,0.036962,-0.043208,-0.147516
6.612708,0.040084,-0.053751,-0.178535
6.622718,0.024170,-0.046390,-0.143293
6.642798,0.047622,-0.051867,-0.130436
6.652808,0.031645,-0.045382,-0.135790
6.662848,0.047577,-0.054954,-0.155019
6.662848,0.047577,-0.054954,-0.155019
6.682898,0.034828,-0.050732,-0.135807
6.692908,0.010381,-0.042246,-0.106992
6.712958,0.036944,-0.061464,-0.126238
6.722999,0.023187,-0.043416,-0.094144
6.722999,0.023187,-0.043416,-0.094144
6.743049,0.021036,-0.048733,-0.097380
6.753058,0.010362,-0.043263,-0.117679
6.753058,0.010362,-0.043263,-0.117679
6.763099,0.012507,-0.046545,-0.102734
6.793189,0.030680,-0.034927,-0.087674
6.803199,0.038076,-0.049826,-0.103747
6.803199,0.038076,-0.049826,-0.103747
6.823249,0.030673,-0.031673,-0.098341
6.823249,0.030673,-0.031673,-0.098341
6.843299,0.025328,-0.035912,-0.101580
6.863349,0.019967,-0.041179,-0.113370
6.863349,0.019967,-0.041179,-0.113370
6.883399,0.012515,-0.032565,-0.122964
6.893439,0.018927,-0.036949,-0.103739
6.893439,0.018927,-0.036949,-0.103739
6.913489,0.000834,-0.047514,-0.119845
6.943580,-0.011966,-0.033665,-0.099536
6.943580,-0.011966,-0.033665,-0.099536
6.953589,0.007202,-0.037984,-0.102708
6.963630,0.012452,-0.054987,-0.124138
6.983680,-0.010935,-0.043255,-0.104920
6.993689,-0.003490,-0.048613,-0.105993
6.993689,-0.003490,-0.048613,-0.105993
7.003730,0.020986,-0.053962,-0.120905
7.013740,-0.003581,-0.061251,-0.143440
7.023780,-0.023718,-0.043233,-0.100682
7.033790,0.002887,-0.047500,-0.119857
7.043830,-0.005628,-0.049664,-0.108140
7.053870,-0.004554,-0.038923,-0.121973
7.083930,0.027412,-0.043308,-0.119769
7.083930,0.027412,-0.043308,-0.119769
7.093970,-0.003464,-0.045465,-0.094227
7.103980,0.014637,-0.044390,-0.108059
7.114020,0.023185,-0.036948,-0.106932
7.124030,0.034922,-0.039182,-0.094092
7.154120,0.038119,-0.041344,-0.090888
7.154120,0.038119,-0.041344,-0.090888
7.164130,0.056221,-0.055356,-0.075950
7.174170,0.050919,-0.044650,-0.078050
7.184180,0.032797,-0.043503,-0.082368
7.194221,0.059446,-0.048990,-0.069501
7.224311,0.038137,-0.052175,-0.058893
7.224311,0.038137,-0.052175,-0.058893
7.234321,0.033886,-0.041426,-0.070604
7.244361,0.031761,-0.044673,-0.059943
7.254371,0.031789,-0.038296,-0.053504
7.264411,0.029666,-0.029700,-0.063083
7.284461,0.031820,-0.028700,-0.050254
7.284461,0.031820,-0.028700,-0.050254
7.294471,0.039255,-0.037263,-0.051342
7.304511,0.039292,-0.036301,-0.028905
7.314521,0.033926,-0.036167,-0.053488
7.324561,0.028591,-0.044749,-0.041793
7.334601,0.032898,-0.027666,-0.043837
7.354678,0.018013,-0.024500,-0.025703
7.364688,0.013708,-0.025432,-0.051357
7.374728,0.028647,-0.030922,-0.029977
7.384738,0.026516,-0.026608,-0.037440
7.394779,0.022217,-0.032946,-0.049232
7.404788,0.003124,-0.020245,-0.011837
7.424838,0.005223,-0.023380,-0.027870
7.424838,0.005223,-0.023380,-0.027870
7.434879,0.005207,-0.024408,-0.036420
7.444888,0.006268,-0.022240,-0.043885
7.454929,-0.008604,-0.015885,-0.022531
7.464969,-0.018233,-0.016815,-0.044995
7.474979,-0.003303,-0.020123,-0.033219
7.495029,-0.016155,-0.029577,-0.057868
7.505069,-0.029896,-0.008350,-0.020418
7.515079,0.003089,-0.012593,-0.049189
7.525119,-0.009687,-0.016904,-0.032153
7.535129,-0.006516,-0.020062,-0.043910
7.545169,0.011604,-0.020126,-0.042792
7.575229,0.007367,-0.015886,-0.033169
7.575229,0.007367,-0.015886,-0.033169
7.585269,0.007353,-0.015841,-0.042783
7.595279,-0.008658,-0.028639,-0.035410
7.605319,-0.008589,-0.005160,-0.032095
7.615360,0.009519,-0.008418,-0.033128
7.635410,0.015898,-0.014851,-0.032073
7.635410,0.015898,-0.014851,-0.032073
7.645419,0.008415,-0.022297,-0.033197
7.655460,0.005246,-0.020222,-0.018241
7.665469,0.004217,-0.005252,-0.021377
7.675510,0.021219,-0.020228,-0.027811
7.685519,0.011639,-0.020238,-0.019291
7.705570,-0.009625,-0.009560,-0.004345
7.715610,0.010562,-0.019121,-0.028903
7.725620,0.003127,-0.020255,-0.009701
7.735660,0.023352,-0.020240,-0.026737
7.745700,0.008401,-0.035178,-0.019371
7.755710,-0.004296,-0.016040,0.007390
7.775760,-0.004271,-0.012887,0.018087
7.785800,0.027578,-0.030908,-0.032116
7.795810,0.013794,-0.022471,-0.000068
7.805850,0.015933,-0.014962,-0.008572
7.815860,0.013773,-0.026713,-0.006498
7.825900,-0.000016,-0.011798,0.010626
7.845950,0.038318,-0.026894,0.014934
7.845950,0.038318,-0.026894,0.014934
7.855960,0.048957,-0.020404,-0.009575
7.866000,0.034042,-0.025761,0.004245
7.876010,0.020219,-0.015047,0.006394
7.886050,0.012708,-0.020251,-0.017152
7.896091,0.019212,-0.007690,0.032063
7.926151,-0.002181,-0.014919,-0.005418
7.926151,-0.002181,-0.014919,-0.005418
7.936191,0.000967,-0.027699,-0.015083
7.946201,-0.007464,-0.005351,0.007432
7.956241,0.011612,-0.032000,-0.016142
7.966251,0.001042,-0.015010,0.011682
7.996341,-0.016054,-0.020203,-0.007617
7.996341,-0.016054,-0.020203,-0.007617
8.006351,-0.008594,-0.023457,-0.002271
8.016391,-0.001116,-0.014917,-0.006483
8.026431,0.004168,-0.028797,-0.010807
8.036441,0.012733,-0.021405,0.001002
8.056491,0.011628,-0.030973,-0.007592
8.066531,-0.003239,-0.018170,0.005246
8.076541,0.008442,-0.025612,-0.009712
8.086581,0.016996,-0.021419,0.001014
8.096591,0.006312,-0.028845,-0.002255
8.106632,0.023363,-0.027817,-0.005408
8.126682,0.004184,-0.026692,-0.004388
8.136691,-0.010764,-0.034099,-0.008737
8.146732,-0.004315,-0.023521,0.008423
8.156772,0.000931,-0.040509,-0.016212
8.166782,-0.017127,-0.034179,0.012610
8.176822,0.010557,-0.029876,-0.012931
8.196872,0.000974,-0.036338,0.005172
8.206882,-0.001215,-0.046920,-0.014112
8.216922,-0.009669,-0.029886,0.003037
8.226932,-0.020326,-0.028778,0.001944
8.236972,-0.004361,-0.035223,-0.001247
8.246982,-0.003259,-0.027801,0.009473
8.267032,0.028681,-0.038569,0.006306
8.277072,0.009476,-0.040597,-0.003370
8.287082,-0.001161,-0.033087,-0.003364
8.297122,-0.021403,-0.036281,0.008315
8.307163,-0.011827,-0.034105,-0.006603
8.317172,-0.019280,-0.037335,0.004043
8.347263,0.005194,-0.043757,-0.009807
8.347263,0.005194,-0.043757,-0.009807
8.357292,-0.008626,-0.037360,0.001936
8.367333,-0.012890,-0.033034,-0.006601
8.377342,-0.025683,-0.037289,-0.001316
8.387383,-0.040591,-0.031896,-0.002400
8.397393,-0.029930,-0.026556,-0.009822
8.407433,-0.022444,-0.025583,0.005158
8.417443,-0.007591,-0.036189,-0.020488
8.427483,-0.013908,-0.021334,0.004133
8.437523,-0.002244,-0.036262,-0.008723
8.447533,-0.016099,-0.038373,-0.004499
8.457573,-0.032018,-0.013759,-0.004426
8.477623,-0.023501,-0.023454,0.007302
8.477623,-0.023501,-0.023454,0.007302
8.487633,-0.019292,-0.036222,-0.005566
8.497673,0.003131,-0.022422,-0.003302
8.507683,0.000980,-0.033124,0.003051
8.517723,0.003103,-0.032028,-0.004416
8.527733,-0.015011,-0.030906,-0.003392
8.547783,-0.044805,-0.020191,0.009395
8.557823,-0.022478,-0.028706,-0.011948
8.567833,-0.035231,-0.024473,0.005128
8.577873,-0.023532,-0.024431,-0.011931
8.587914,-0.015006,-0.031999,0.001944
8.597924,-0.003295,-0.025534,-0.018290
8.617974,-0.003309,-0.034108,-0.011921
8.628014,-0.019252,-0.023422,-0.002300
8.638024,-0.011739,-0.010687,0.009531
8.648064,0.000941,-0.036232,-0.017260
8.658074,-0.018125,-0.013925,0.021248
8.668114,-0.005408,-0.016968,-0.021459
8.688164,0.003157,-0.016039,0.002069
8.698174,0.000924,-0.040489,-0.020485
8.708214,-0.003266,-0.033166,0.014789
8.718254,-0.018226,-0.025455,-0.024740
8.728264,-0.015013,-0.037364,0.007259
8.738304,-0.016051,-0.026677,0.006239
8.758354,-0.024561,-0.025621,0.014766
8.758354,-0.024561,-0.025621,0.014766
8.768364,-0.010752,-0.026598,-0.014042
8.778404,-0.002218,-0.032036,0.000911
8.788414,0.011636,-0.033154,0.002012
8.798455,0.008427,-0.035259,-0.002280
8.808464,0.015898,-0.035319,0.005218
8.828514,0.013752,-0.039574,0.003055
8.838555,0.005266,-0.029980,0.012691
8.848564,0.012716,-0.031047,0.007366
8.858605,0.021191,-0.044917,-0.001222
8.868645,0.003120,-0.035313,0.012660
8.878655,-0.001156,-0.034180,0.001972
8.908745,0.000926,-0.048035,-0.005566
8.918755,-0.003253,-0.032129,0.021203
8.928795,0.010540,-0.039518,-0.006567
8.938805,0.005234,-0.048190,0.024355
8.948845,0.010568,-0.035296,0.004135
8.968895,-0.004294,-0.030050,0.034029
8.978905,0.022238,-0.045938,-0.011906
8.988945,0.014863,-0.041875,0.037230
8.998986,0.028622,-0.051308,-0.009778
9.008995,0.030803,-0.041780,0.006297
9.019036,0.018046,-0.042918,0.029757
9.029045,0.021206,-0.040656,0.000935
9.039086,0.015895,-0.041772,0.014801
9.049095,0.031882,-0.039668,0.010583
9.059136,0.029711,-0.051388,0.006248
9.069145,0.013780,-0.037508,0.018020
9.079186,0.006252,-0.049120,-0.005556
9.089195,-0.010759,-0.041655,0.008319
9.109246,-0.002243,-0.038418,-0.004461
9.119286,-0.012841,-0.028879,0.017988
9.129326,-0.002253,-0.040544,-0.006607
9.139336,-0.015039,-0.039434,-0.006637
9.149376,-0.028826,-0.020217,0.004098
9.159386,-0.013952,-0.030889,-0.007662
9.179436,-0.006443,-0.018139,0.000965
9.189476,0.012684,-0.036331,-0.004410
9.199486,0.004216,-0.022486,0.009519
9.209526,-0.003245,-0.015998,-0.002221
9.219536,-0.000051,-0.019228,0.000977
9.229576,-0.017088,-0.017067,0.007350
9.259636,-0.014993,-0.026655,0.000901
9.259636,-0.014993,-0.026655,0.000901
9.269676,-0.023503,-0.019136,-0.002292
9.279717,-0.028802,-0.005211,-0.007582
9.289726,-0.031981,-0.005261,0.005228
9.299767,-0.024529,-0.007411,0.003102
9.319817,-0.014955,-0.012772,0.000966
9.329827,-0.025607,-0.005216,-0.008641
9.339867,-0.027663,0.015021,0.004267
9.349877,-0.015959,0.008580,0.003201
9.359947,0.005330,0.001056,-0.001048
9.369957,0.009593,-0.004343,0.008552
9.390007,-0.013855,0.004352,-0.007495
9.400047,-0.012713,0.020266,0.013948
9.410087,-0.008523,0.004325,-0.005344
9.420097,0.001041,-0.008542,-0.001106
9.430137,-0.025528,0.012848,0.010672
9.440147,-0.016001,0.003327,-0.014983
9.450187,-0.019145,0.007477,0.012801
9.460197,-0.004242,0.010718,-0.005302
9.470237,-0.006389,0.002157,-0.000007
9.480247,-0.023427,0.006474,0.002102
9.490287,-0.021280,0.015035,-0.003192
9.500297,-0.006383,0.004292,0.000003
9.510338,-0.001029,0.006350,0.012846
9.530388,-0.015938,0.010670,0.012825
9.540397,0.000010,0.009662,-0.010636
9.550438,0.005358,0.004199,0.011785
9.560478,-0.001026,0.008496,0.010719
9.570488,0.004233,0.000082,-0.020284
9.580528,-0.020177,0.015994,0.019248
9.610588,-0.014875,0.013906,0.005366
9.620628,0.001056,0.000027,-0.006406
9.630638,0.001135,0.012705,0.022496
9.640678,0.008470,-0.012777,-0.013924
9.650688,-0.021248,0.014934,0.018172
9.670738,0.005362,0.007418,0.008596
9.680778,0.006410,0.004241,0.002174
9.690818,0.002148,0.006406,-0.001032
9.700828,-0.009523,0.017047,0.015009
9.710869,0.014920,0.004264,-0.008484
9.720878,0.004312,0.008449,0.017143
9.740928,0.003278,0.023433,0.010802
9.740928,0.003278,0.023433,0.010802
9.750969,0.011743,0.000979,0.010719
9.760978,-0.007457,0.005399,-0.007473
9.771019,-0.026559,0.021359,0.018187
9.781028,0.010680,0.012821,-0.008456
9.791069,-0.018077,0.007469,0.013872
9.811119,-0.002163,-0.000970,-0.019238
9.821129,-0.030828,0.013852,0.027754
9.831169,-0.015969,0.012923,-0.011733
9.841209,-0.004254,0.002140,0.002135
9.851219,-0.012765,0.005351,0.006399
9.861259,-0.005308,0.010722,-0.005305
9.881309,0.009560,-0.005315,-0.011749
9.891319,-0.014862,0.013866,0.013911
9.901359,0.013830,-0.011812,0.004255
9.911369,-0.008502,0.005337,0.006411
9.921409,-0.005304,0.007478,0.003225
9.931419,0.012778,-0.005391,0.002146
9.951469,-0.006389,0.001079,0.002124
9.961509,-0.021351,-0.011668,-0.002251
9.971550,-0.028760,0.003272,0.005277
9.981559,-0.024529,-0.007411,0.003102
9.991600,-0.010660,0.001118,-0.003229
10.001610,-0.012819,-0.011716,0.002046
10.021660,-0.019253,-0.012647,-0.022546
10.031700,-0.051149,-0.011713,0.027577
10.041710,-0.034103,0.010876,-0.018202
10.051750,-0.022486,-0.030836,-0.013027
10.061760,-0.049984,0.013823,0.046929
10.071800,0.009443,-0.023257,-0.056699
10.091850,-0.012841,0.000203,-0.034217
10.101860,-0.026747,-0.039447,0.004012
10.111900,-0.026592,0.007461,0.021326
10.121940,-0.020362,-0.031896,-0.016230
10.131950,-0.024535,-0.010625,0.005223
10.141990,-0.019279,-0.030877,-0.006609
10.152000,-0.022466,-0.028746,-0.003403
10.162040,-0.024584,-0.025551,-0.000189
10.172050,-0.026734,-0.034102,0.002969
10.182090,-0.025673,-0.028705,-0.009821
10.192100,-0.039535,-0.040489,0.007177
10.202141,-0.024610,-0.029777,-0.009823
10.212150,-0.026779,-0.045809,-0.005632
10.232200,-0.006569,-0.050055,-0.024824
10.242241,-0.012843,-0.035337,0.028639
10.252281,-0.008611,-0.030942,-0.000170
10.262291,-0.012963,-0.060810,-0.004596
10.272331,-0.028796,-0.024621,0.031850
10.282341,0.002998,-0.058625,-0.025906
10.302391,-0.009666,-0.025589,-0.002284
10.312431,-0.003352,-0.059824,0.006117
10.322441,-0.020329,-0.029846,0.001939
10.332481,-0.010790,-0.045866,-0.004520
10.342491,-0.002199,-0.038560,0.025449
10.352531,0.000943,-0.040549,-0.007667
10.372583,-0.003306,-0.044888,0.009392
10.382593,0.003092,-0.037378,-0.002305
10.392633,-0.010691,-0.026790,0.026549
10.402674,0.014828,-0.038534,0.008404
10.412683,0.006320,-0.033177,0.010543
10.422724,0.006322,-0.033182,0.011611
10.442774,0.007372,-0.034213,0.003063
10.452783,-0.011744,-0.020364,0.023372
10.452783,-0.011744,-0.020364,0.023372
10.472833,-0.009646,-0.028884,0.016928
10.472833,-0.009646,-0.028884,0.016928
10.492883,-0.005400,-0.027764,0.003058
10.512934,-0.022451,-0.029870,0.008342
10.512934,-0.022451,-0.029870,0.008342
10.522974,-0.023510,-0.023423,0.000892
10.543024,-0.013934,-0.028789,-0.000175
10.553064,-0.020279,-0.018155,0.013745
10.563074,-0.000074,-0.024542,-0.004389
10.583124,-0.014965,-0.021356,0.009472
10.583124,-0.014965,-0.021356,0.009472
10.603174,-0.009621,-0.018189,0.013774
10.603174,-0.009621,-0.018189,0.013774
10.623224,0.002095,-0.014973,0.003140
10.633264,0.003165,-0.017143,0.009542
10.653314,0.011677,-0.019281,0.004214
10.663324,0.002092,-0.013885,-0.001128
10.663324,0.002092,-0.013885,-0.001128
10.683405,-0.011757,-0.012782,0.000975
10.683405,-0.011757,-0.012782,0.000975
10.693414,-0.014916,-0.003201,0.009558
10.703455,0.002067,-0.023501,-0.000105
10.733515,-0.007529,-0.021304,-0.006531
10.733515,-0.007529,-0.021304,-0.006531
10.743555,-0.023451,-0.018225,0.030827
10.753565,-0.005405,-0.026671,-0.002278
10.763605,0.008511,-0.015060,0.017044
10.773615,-0.000062,-0.025656,0.005220
10.793665,0.005271,-0.029995,0.015896
10.793665,0.005271,-0.029995,0.015896
10.803705,0.010600,-0.030012,0.015911
10.813745,0.027647,-0.024662,0.002096
10.823755,0.012724,-0.036457,0.022295
10.833795,0.026575,-0.026795,0.002083
10.853845,0.006341,-0.034321,0.026561
10.873895,0.013766,-0.039619,0.012669
10.873895,0.013766,-0.039619,0.012669
10.883905,0.006274,-0.042728,-0.002321
10.893945,-0.007527,-0.033157,0.015846
10.903955,0.016935,-0.040616,-0.004418
10.913996,-0.010753,-0.047060,0.022180
10.924005,-0.026713,-0.028783,0.007268
10.954096,0.004152,-0.039517,-0.002312
10.954096,0.004152,-0.039517,-0.002312
10.964136,-0.009695,-0.043810,0.011516
10.974146,-0.004381,-0.045932,0.005112
10.984186,-0.009719,-0.049119,0.005082
10.994196,0.011591,-0.052402,0.007262
11.024286,0.025492,-0.036433,0.008444
11.024286,0.025492,-0.036433,0.008444
11.034296,0.025456,-0.046014,0.001989
11.044336,0.004180,-0.039608,0.016916
11.054346,0.015893,-0.035304,0.002013
11.064386,0.025486,-0.036413,0.004171
11.084436,0.020165,-0.024572,-0.011811
11.084436,0.020165,-0.024572,-0.011811
11.094477,0.003205,-0.012962,0.028789
11.104486,0.034006,-0.035342,-0.002210
11.114527,0.028691,-0.028907,-0.004330
11.124536,-0.010649,-0.015073,0.033014
11.134577,0.013734,-0.037362,-0.012957
11.154627,0.002040,-0.035264,0.003043
11.164636,0.008479,-0.014958,-0.004320
11.174677,-0.002165,-0.012813,0.001002
11.184686,0.009563,-0.012867,0.004238
11.194727,-0.017067,-0.014982,0.018042
11.204737,-0.001123,-0.015975,-0.008624
11.224787,-0.007501,-0.016005,0.002040
11.234827,0.006372,-0.006413,-0.003217
11.244867,-0.013814,0.000991,0.025604
11.254877,0.037221,-0.019253,-0.019216
11.264917,-0.005269,0.000903,0.038445
11.274927,-0.006424,-0.012815,0.004194
11.294977,0.004298,-0.013052,0.046952
11.294977,0.004298,-0.013052,0.046952
11.305017,0.005308,-0.005337,-0.004283
11.315027,0.039439,-0.005528,0.012901
11.325067,-0.018114,-0.018268,0.036183
11.335077,0.036172,-0.009608,-0.025583
11.345117,0.000017,-0.005441,0.021339
11.365214,-0.019217,-0.017070,0.009480
11.375255,0.002121,-0.004284,0.001054
11.385264,0.020188,-0.013873,-0.016033
11.395305,-0.019237,-0.024546,0.009445
11.405315,-0.034121,-0.009536,0.007338
11.415355,0.013783,-0.017051,-0.017134
11.435405,-0.012864,-0.022344,-0.008687
11.445415,-0.011723,-0.008581,0.015950
11.455455,-0.005392,-0.022404,-0.001189
11.465465,-0.018157,-0.012746,-0.002247
11.475505,-0.013840,-0.002157,0.013838
11.485515,0.013786,-0.022446,-0.005409
11.515605,-0.005377,-0.017064,-0.001164
11.515605,-0.005377,-0.017064,-0.001164
11.525645,-0.027693,-0.002122,0.015937
11.535655,0.013779,-0.020270,-0.013945
11.545695,-0.003218,-0.012850,0.009544
11.555705,-0.011755,-0.009558,-0.003282
11.585795,0.000957,-0.026590,-0.023624
11.585795,0.000957,-0.026590,-0.023624
11.595805,-0.026634,-0.004256,0.014861
11.605846,0.003115,-0.022371,-0.013984
11.615855,-0.008589,-0.018087,-0.008655
11.625896,-0.032013,-0.014852,0.000909
11.645946,-0.009636,-0.015988,-0.000102
11.645946,-0.009636,-0.015988,-0.000102
11.655986,-0.023498,-0.014844,-0.006544
11.665996,-0.014935,-0.008525,0.006328
11.676036,0.015899,-0.023470,-0.016090
11.686046,-0.028805,-0.012742,0.004133
11.696086,-0.012843,-0.017025,-0.004389
11.726146,-0.003270,-0.023459,-0.005461
11.726146,-0.003270,-0.023459,-0.005461
11.736186,-0.013910,-0.023480,0.006260
11.746196,-0.012864,-0.026652,-0.001230
11.756236,0.007416,-0.018194,0.003139
11.766246,-0.006485,-0.036319,0.006220
11.796336,-0.007574,-0.038396,-0.005544
11.796336,-0.007574,-0.038396,-0.005544
11.806377,-0.020284,-0.018140,0.010540
11.816386,0.008441,-0.028842,-0.004386
11.826427,-0.020319,-0.024491,-0.001240
11.836436,-0.014976,-0.024554,0.008388
11.866527,-0.017083,-0.013853,0.005228
11.866527,-0.017083,-0.013853,0.005228
11.876536,-0.006498,-0.035201,-0.004457
11.886577,-0.010656,-0.003205,0.007433
11.896586,0.014854,-0.020304,-0.007532
11.906627,-0.022425,-0.018102,0.004125
11.936717,-0.026690,-0.011620,-0.008674
11.936717,-0.026690,-0.011620,-0.008674
11.946727,-0.026649,-0.002054,0.000985
11.956767,0.006313,-0.024538,-0.009713
11.966777,-0.014958,-0.012762,-0.001170
11.976817,-0.007502,-0.012771,-0.004354
11.996867,-0.022446,-0.016958,-0.011893
12.006877,-0.023509,-0.018043,-0.007628
12.016917,-0.025613,-0.011659,-0.001194
12.026927,-0.016071,-0.023382,-0.012974
12.036967,-0.029850,-0.003112,0.000971
12.046977,-0.020331,-0.026607,-0.005523
12.077067,-0.023489,-0.018104,0.005191
12.077067,-0.023489,-0.018104,0.005191
12.087108,-0.009654,-0.021317,-0.002264
12.097117,-0.010727,-0.028830,0.006243
12.107158,-0.009676,-0.029866,-0.001236
12.117168,-0.022450,-0.026641,0.003017
12.147258,-0.010732,-0.030971,0.007301
12.147258,-0.010732,-0.030971,0.007301
12.157268,-0.016046,-0.027770,0.011575
12.167308,-0.011780,-0.025638,0.009460
12.177318,-0.004346,-0.032039,0.003041
12.187358,-0.016030,-0.021357,0.010537
12.217448,-0.020272,-0.008483,0.000972
12.217448,-0.020272,-0.008483,0.000972
12.227458,0.007356,-0.037397,-0.001225
12.237498,-0.028814,-0.015946,0.004118
12.247508,-0.011795,-0.023436,-0.004416
12.257548,-0.008571,-0.019220,0.005226
12.277598,-0.028819,-0.014852,-0.001218
12.277598,-0.028819,-0.014852,-0.001218
12.287608,-0.013908,-0.020256,0.002002
12.297649,0.006330,-0.020281,-0.006488
12.307658,-0.008585,-0.021331,-0.000125
12.317699,-0.002216,-0.027734,-0.005478
12.327708,0.001030,-0.010662,-0.004320
12.347758,-0.007504,-0.017073,0.002035
12.357796,0.004180,-0.023448,-0.012918
12.367837,-0.005355,-0.011750,0.004202
12.377847,-0.010738,-0.029872,0.000897
12.387886,-0.006445,-0.015978,-0.004366
12.397896,-0.008576,-0.020283,0.004153
12.417947,-0.020310,-0.023444,0.003038
12.427986,-0.020315,-0.022351,-0.002298
12.437997,-0.009666,-0.025589,-0.002284
12.448037,-0.010715,-0.019173,-0.003325
12.458046,-0.014988,-0.025592,0.001974
12.468086,-0.011785,-0.024544,0.004124
12.488137,-0.012809,-0.011746,0.008455
12.498177,0.006280,-0.040592,-0.002311
12.508187,-0.022431,-0.026701,0.015835
12.518228,-0.013934,-0.025560,-0.005500
12.528236,0.007423,-0.021449,0.013806
12.538277,-0.003289,-0.036324,0.005160
12.558328,-0.023470,-0.017087,0.015878
12.568336,0.005210,-0.040573,-0.005519
12.578378,-0.019201,-0.010657,0.008442
12.588387,-0.010723,-0.025611,0.003054
12.598427,-0.001118,-0.022453,0.006300
12.608437,-0.018141,-0.018182,0.018023
12.628488,-0.012805,-0.008527,0.005265
12.638527,-0.010659,-0.004273,0.007428
12.648568,-0.020225,0.008604,0.001053
12.658578,-0.001037,0.011761,-0.002084
12.668617,-0.017010,0.013923,0.003223
12.678627,-0.018057,0.022485,0.000056
12.698678,-0.012711,0.029954,-0.002030
12.708717,-0.012678,0.039545,0.002288
12.718727,-0.011623,0.036343,0.001208
12.728768,-0.006306,0.034210,-0.003060
12.738777,-0.020126,0.045992,-0.000906
12.748817,-0.011600,0.048120,-0.005145
12.758828,-0.009461,0.049166,-0.001930
12.768868,-0.009485,0.042779,-0.006233
12.778908,-0.020123,0.047060,-0.000901
12.788918,-0.003085,0.042743,-0.003011
12.798959,-0.008414,0.042760,-0.003026
12.808969,-0.015880,0.040648,-0.003056
12.819008,-0.009509,0.032084,-0.003079
12.839059,-0.010582,0.029957,-0.004160
12.849068,-0.010600,0.022471,-0.002059
12.859108,-0.018057,0.022485,0.000056
12.869119,-0.011688,0.016082,-0.005297
12.879158,-0.007433,0.009631,0.001093
12.889168,-0.017019,0.011798,0.001077
12.909219,-0.013853,-0.004272,0.009555
12.919258,-0.004293,-0.009587,-0.002194
12.929298,-0.013864,-0.009622,0.011667
12.939309,-0.007525,-0.024548,0.002000
12.949348,-0.002206,-0.029920,0.005193
12.959358,-0.003272,-0.028839,0.003059
12.979409,-0.005421,-0.036318,0.005154
12.989448,-0.002257,-0.048070,0.004039
12.999458,-0.004369,-0.042739,0.007263
13.009500,0.003084,-0.043816,0.004074
13.019509,0.002020,-0.044895,0.007271
13.029549,0.000924,-0.053415,0.002955
13.059639,-0.004381,-0.044854,0.002980
13.069649,0.000935,-0.051294,0.006169
13.079690,-0.003339,-0.052323,0.000811
13.089700,-0.006510,-0.042701,0.000848
13.099739,-0.004385,-0.044844,0.000844
13.119790,-0.010763,-0.040567,0.004051
13.129799,0.003077,-0.042717,-0.002330
13.139839,-0.005426,-0.038453,0.005144
13.149850,-0.010753,-0.036290,0.003003
13.159890,-0.002241,-0.040579,0.000870
13.169899,-0.002215,-0.030968,0.000916
13.189950,-0.005413,-0.034187,0.006233
13.199989,0.003106,-0.035267,0.003046
13.210030,-0.002172,-0.018178,0.006317
13.220040,-0.004341,-0.034210,0.010508
13.230081,-0.014989,-0.028821,0.007300
13.240089,-0.007492,-0.016035,0.008449
13.260140,-0.016028,-0.021362,0.011605
13.270180,-0.001112,-0.021396,0.008441
13.280189,-0.010724,-0.029918,0.010511
13.290231,-0.024537,-0.016005,0.013743
13.300240,-0.010699,-0.020302,0.009488
13.310280,-0.004303,-0.021405,0.012705
13.330331,-0.004291,-0.016056,0.010594
13.340340,-0.010650,-0.006454,0.017031
13.350380,-0.003211,-0.008563,0.006360
13.360436,-0.018132,-0.009593,0.008450
13.370446,-0.018085,0.007494,0.008531
13.380486,-0.002107,0.003160,0.010691
13.400536,-0.039411,0.003286,0.009521
13.410546,-0.005249,0.023461,0.010779
13.420586,-0.006338,0.013843,0.012867
13.430596,-0.008443,0.025617,0.008644
13.440636,-0.013799,0.016023,0.008583
13.450646,-0.018039,0.028893,0.000087
13.470696,-0.012717,0.027818,-0.002040
13.470696,-0.012717,0.027818,-0.002040
13.480736,-0.013695,0.053396,0.009829
13.490777,0.008603,0.025582,0.004418
13.500787,-0.005221,0.036302,0.005498
13.510827,-0.012655,0.043781,0.009786
13.520837,-0.005200,0.045928,0.002339
13.540887,-0.009519,0.035349,-0.015882
13.550927,-0.025457,0.043863,0.001205
13.560937,0.004414,0.043675,0.020515
13.570977,-0.018039,0.033200,-0.007370
13.580987,-0.008431,0.035274,-0.000925
13.591027,-0.012685,0.023409,0.026781
13.611077,-0.013740,0.025534,0.029993
13.621087,-0.001052,0.001036,0.007479
13.631127,-0.018039,0.027815,0.002218
13.641167,-0.023436,0.012967,-0.016027
13.651177,-0.009552,-0.000095,0.026678
13.661217,-0.019154,0.007507,0.006392
13.681267,-0.002185,-0.023523,0.007360
13.691277,-0.000017,-0.008564,0.004232
13.701318,-0.014962,-0.017059,0.004151
13.711327,0.000993,-0.027780,0.002008
13.721368,-0.012886,-0.036278,0.001929
13.731377,-0.014989,-0.027743,0.005168
13.751427,0.003042,-0.056611,-0.000259
13.761468,-0.013950,-0.041665,0.012583
13.771508,-0.003337,-0.050177,-0.001315
13.781518,-0.002286,-0.058749,0.003989
13.791558,-0.005477,-0.055530,0.002927
13.801568,-0.006538,-0.053386,0.001866
13.821618,-0.007626,-0.061931,0.002891
13.831658,0.000907,-0.055515,-0.004533
13.841668,-0.003409,-0.075802,-0.002504
13.851708,-0.010832,-0.064046,0.000735
13.861718,-0.005496,-0.059777,-0.002434
13.871758,-0.008698,-0.062985,0.000746
13.881768,-0.006561,-0.058700,-0.003500
13.891808,0.000906,-0.057666,-0.001339
13.901818,0.004080,-0.066220,-0.001370
13.911858,-0.008688,-0.057630,-0.002433
13.921899,-0.002262,-0.049133,0.002966
13.931908,0.012594,-0.067286,-0.007761
13.941949,-0.002277,-0.056624,0.006135
13.961999,0.001970,-0.057665,-0.002404
13.972008,-0.004391,-0.051287,0.008291
13.982049,-0.003323,-0.042681,-0.005552
13.992058,0.006263,-0.053463,0.009378
14.002099,0.000929,-0.048045,-0.003429
14.012109,-0.005458,-0.045893,-0.002369
14.032159,0.003080,-0.041649,-0.002325
14.042199,-0.008621,-0.037375,0.005140
14.052239,-0.001186,-0.042704,-0.002342
14.062249,-0.002244,-0.042725,0.002996
14.072289,-0.008626,-0.035204,-0.002327
14.082299,0.000974,-0.029875,-0.006548
14.092339,-0.002224,-0.034172,0.000900
14.102349,-0.002221,-0.033104,0.000905
14.112389,0.002026,-0.038452,-0.000176
14.122399,-0.000095,-0.029861,-0.008687
14.132439,0.006329,-0.024588,0.000969
14.142449,0.008428,-0.036342,0.000920
14.152489,0.000973,-0.032026,-0.003353
14.172539,0.008430,-0.035269,-0.000144
14.182549,0.003107,-0.029887,-0.005474
14.192589,-0.001129,-0.022418,-0.001177
14.202630,0.003100,-0.032018,-0.006552
14.212640,-0.007562,-0.034124,-0.005523
14.212640,-0.007562,-0.034124,-0.005523
14.232690,-0.003288,-0.028788,-0.007623
14.262780,-0.005413,-0.026645,-0.007619
14.272790,0.002005,-0.038387,-0.014063
14.282830,0.002005,-0.035129,-0.013029
14.292840,-0.012878,-0.023377,-0.016169
14.302880,-0.002274,-0.042629,-0.017299
14.322930,-0.005452,-0.030831,-0.025798
14.332940,-0.000143,-0.040480,-0.021556
14.342980,-0.010809,-0.041498,-0.024795
14.353020,-0.016131,-0.032887,-0.035451
14.353020,-0.016131,-0.032887,-0.035451
14.363071,-0.010808,-0.037191,-0.032252
14.373111,-0.007638,-0.043579,-0.038683
14.403171,-0.005509,-0.039268,-0.048271
14.413212,-0.021521,-0.043448,-0.056880
14.413212,-0.021521,-0.043448,-0.056880
14.423221,-0.024707,-0.038087,-0.059000
14.443271,-0.019424,-0.045499,-0.076112
14.453312,-0.024724,-0.038032,-0.070750
14.453312,-0.024724,-0.038032,-0.070750
14.473362,-0.017330,-0.055082,-0.083629
14.473362,-0.017330,-0.055082,-0.083629
14.483402,-0.031175,-0.042141,-0.100698
14.493412,-0.008805,-0.047564,-0.098525
14.503452,-0.006690,-0.053983,-0.097481
14.513462,-0.026970,-0.049514,-0.125290
14.543552,-0.001431,-0.058085,-0.137010
14.543552,-0.001431,-0.058085,-0.137010
14.553562,-0.010968,-0.044226,-0.125221
14.573612,-0.002471,-0.047392,-0.139099
14.573612,-0.002471,-0.047392,-0.139099
14.583652,-0.002492,-0.048404,-0.150854
14.613712,0.006014,-0.047288,-0.166848
14.613712,0.006014,-0.047288,-0.166848
14.623752,0.007068,-0.052641,-0.164734
14.633793,0.005988,-0.051514,-0.176482
14.643802,0.007073,-0.046193,-0.173250
14.653843,0.016634,-0.055821,-0.176473
14.683902,0.035814,-0.052639,-0.184951
14.683902,0.035814,-0.052639,-0.184951
14.693943,0.029406,-0.055807,-0.188188
14.703953,0.014498,-0.045028,-0.198861
14.713993,0.028369,-0.044046,-0.190272
14.724003,0.047489,-0.056832,-0.209507
14.754093,0.053902,-0.049367,-0.211591
14.754093,0.053902,-0.049367,-0.211591
14.764133,0.025159,-0.039688,-0.206283
14.774143,0.044321,-0.037523,-0.225448
14.784183,0.052853,-0.040800,-0.215826
14.794193,0.047533,-0.031116,-0.227545
14.814243,0.046470,-0.030044,-0.227543
14.824283,0.047510,-0.029967,-0.244631
14.834293,0.057098,-0.034295,-0.239284
14.844333,0.050719,-0.024628,-0.246734
14.854343,0.048588,-0.025699,-0.244608
14.864383,0.057079,-0.033156,-0.254234
14.894443,0.066661,-0.031001,-0.264879
14.894443,0.066661,-0.031001,-0.264879
14.904484,0.061332,-0.028828,-0.269157
14.914524,0.059169,-0.037339,-0.274544
14.924534,0.060276,-0.023469,-0.272339
14.934574,0.061295,-0.034096,-0.284137
14.954624,0.055968,-0.029777,-0.290540
14.954624,0.055968,-0.029777,-0.290540
14.964634,0.053817,-0.035095,-0.293776
14.974674,0.046358,-0.030768,-0.300185
14.984684,0.035666,-0.036013,-0.313058
14.994724,0.035710,-0.025379,-0.303394
15.004734,0.043117,-0.036006,-0.319447
15.034824,0.040975,-0.032735,-0.332256
15.044834,0.031380,-0.033772,-0.332287
15.054874,0.047336,-0.036957,-0.347213
15.064914,0.044127,-0.040140,-0.349374
15.074924,0.047308,-0.040100,-0.360047
15.094974,0.044097,-0.042200,-0.365407
15.094974,0.044097,-0.042200,-0.365407
15.105015,0.050475,-0.044321,-0.372877
15.115024,0.048313,-0.051759,-0.379327
15.125065,0.055770,-0.048539,-0.387837
15.135074,0.052556,-0.052785,-0.391071
15.145115,0.057868,-0.054903,-0.398543
15.175174,0.054651,-0.055910,-0.409239
15.175174,0.054651,-0.055910,-0.409239
15.185215,0.072700,-0.063288,-0.442339
15.195255,0.066316,-0.064380,-0.432748
15.205265,0.067398,-0.062278,-0.426325
15.215305,0.070554,-0.069698,-0.440239
15.235355,0.068440,-0.057899,-0.449803
15.235355,0.068440,-0.057899,-0.449803
15.245365,0.082246,-0.069635,-0.461570
15.255405,0.075847,-0.072833,-0.458398
15.265415,0.072652,-0.068521,-0.464796
15.275455,0.086472,-0.073840,-0.478670
15.285465,0.088633,-0.066402,-0.472219
15.295505,0.090735,-0.070625,-0.483984
15.305515,0.101381,-0.071697,-0.490369
15.315555,0.097151,-0.062092,-0.486062
15.325565,0.099245,-0.071675,-0.493579
15.335605,0.106692,-0.074888,-0.496779
15.345646,0.106737,-0.058874,-0.495635
15.355655,0.124791,-0.074886,-0.509547
15.365703,0.108848,-0.066356,-0.495664
15.375712,0.105647,-0.062023,-0.506335
15.385753,0.138671,-0.064236,-0.512663
15.395762,0.137603,-0.068535,-0.506277
15.405803,0.138682,-0.064272,-0.505186
15.415813,0.168516,-0.064343,-0.510445
15.425853,0.154655,-0.071819,-0.500904
15.435863,0.161060,-0.063256,-0.509392
15.445903,0.180223,-0.072945,-0.506180
15.455913,0.161034,-0.073946,-0.507306
15.465953,0.167447,-0.064330,-0.512584
15.475963,0.175976,-0.065441,-0.509361
15.486003,0.164220,-0.077150,-0.509449
15.496043,0.182353,-0.067562,-0.516831
15.516093,0.170609,-0.076077,-0.514767
15.516093,0.170609,-0.076077,-0.514767
15.526103,0.173806,-0.072853,-0.521152
15.536143,0.171653,-0.077088,-0.527588
15.546153,0.164208,-0.073880,-0.523320
15.556193,0.173768,-0.079195,-0.535069
15.576243,0.164209,-0.068500,-0.531840
15.596293,0.151417,-0.065219,-0.539338
15.596293,0.151417,-0.065219,-0.539338
15.606303,0.163116,-0.068410,-0.550003
15.616344,0.171628,-0.071622,-0.554267
15.626384,0.161004,-0.063079,-0.546779
15.636394,0.170574,-0.067347,-0.554250
15.646434,0.179066,-0.076960,-0.559613
15.676494,0.174834,-0.068428,-0.554243
15.676494,0.174834,-0.068428,-0.554243
15.686534,0.180142,-0.069458,-0.565984
15.696544,0.176953,-0.068395,-0.562783
15.706584,0.180165,-0.065222,-0.558486
15.716594,0.191842,-0.076961,-0.568123
15.746684,0.205709,-0.075964,-0.562739
15.746684,0.205709,-0.075964,-0.562739
15.756694,0.166357,-0.050246,-0.554181
15.766734,0.195127,-0.047085,-0.564768
15.776774,0.208935,-0.063139,-0.566943
15.786784,0.197230,-0.056698,-0.565876
15.806834,0.182261,-0.070502,-0.572392
15.806834,0.182261,-0.070502,-0.572392
15.816875,0.155688,-0.050176,-0.561687
15.826884,0.157802,-0.047971,-0.577694
15.836925,0.155612,-0.070401,-0.575670
15.846934,0.155650,-0.055440,-0.577736
15.856975,0.164179,-0.053321,-0.579838
15.877025,0.147116,-0.059699,-0.574575
15.887034,0.154591,-0.054383,-0.574529
15.897075,0.162027,-0.062946,-0.575617
15.907115,0.149250,-0.064023,-0.564975
15.917125,0.143909,-0.059658,-0.580993
15.927165,0.147097,-0.063945,-0.579936
15.947215,0.137500,-0.066055,-0.578904
15.947215,0.137500,-0.066055,-0.578904
15.957225,0.130074,-0.065064,-0.557556
15.967265,0.134314,-0.061773,-0.578893
15.977275,0.141767,-0.067157,-0.574625
15.987315,0.139733,-0.043762,-0.552087
15.997325,0.154531,-0.068196,-0.589549
16.027415,0.137513,-0.067173,-0.568227
16.037425,0.125918,-0.031995,-0.546729
16.047465,0.124780,-0.037149,-0.585212
16.057506,0.152523,-0.045960,-0.547789
16.067515,0.130098,-0.044672,-0.578823
16.077556,0.139799,-0.018116,-0.555170
16.087565,0.135463,-0.036187,-0.570223
16.097606,0.147215,-0.027696,-0.566945
16.107616,0.106746,-0.019047,-0.561675
16.117656,0.146166,-0.011588,-0.585032
16.127666,0.132301,-0.027668,-0.562714
16.137706,0.112081,-0.010465,-0.573370
16.157756,0.124883,-0.012698,-0.561595
16.167766,0.155776,-0.006290,-0.582844
16.177806,0.132316,-0.013714,-0.577603
16.187816,0.109971,-0.000831,-0.576535
16.197856,0.147253,-0.006272,-0.580731
16.207896,0.122749,-0.004067,-0.578652
16.227946,0.146208,0.000129,-0.578567
16.237956,0.128039,-0.010426,-0.592554
16.247996,0.115304,0.004526,-0.583973
16.258006,0.124902,0.012016,-0.593525
16.268046,0.131232,-0.003958,-0.607469
16.278056,0.130217,0.003425,-0.587141
16.288096,0.138740,0.006642,-0.595648
16.298106,0.147265,0.008770,-0.599887
16.308147,0.137697,0.009803,-0.586022
16.318156,0.170651,-0.005113,-0.615912
16.328197,0.155755,-0.002990,-0.603124
16.338237,0.140858,0.003446,-0.598862
16.348247,0.157929,0.013027,-0.604111
16.368322,0.096076,0.000418,-0.605409
16.378362,0.129126,0.008895,-0.613824
16.388372,0.120572,-0.002840,-0.610698
16.398412,0.107797,-0.000688,-0.605382
16.408422,0.116330,0.008956,-0.618132
16.418462,0.118435,-0.003891,-0.612846
16.438512,0.113075,-0.009163,-0.623567
16.438512,0.113075,-0.009163,-0.623567
16.448522,0.128004,-0.010314,-0.616054
16.458562,0.111981,-0.026307,-0.610833
16.468572,0.108783,-0.020906,-0.621498
16.478612,0.119474,-0.013506,-0.612888
16.488652,0.131107,-0.041264,-0.622601
16.508703,0.129031,-0.026352,-0.612923
16.518712,0.137484,-0.050922,-0.617288
16.528753,0.120399,-0.062614,-0.617391
16.538762,0.116204,-0.038042,-0.616218
16.548803,0.137477,-0.051980,-0.619430
16.558812,0.124675,-0.063746,-0.606702
16.578862,0.106562,-0.056166,-0.616330
16.578862,0.106562,-0.056166,-0.616330
16.588903,0.137465,-0.060558,-0.611993
16.598912,0.126730,-0.085056,-0.618548
16.608953,0.101237,-0.059393,-0.607815
16.618963,0.125699,-0.069003,-0.624884
16.629003,0.123544,-0.086159,-0.608948
16.639043,0.110779,-0.074345,-0.614268
16.649053,0.143844,-0.065914,-0.613069
16.659093,0.140581,-0.091549,-0.609994
16.669103,0.121426,-0.082963,-0.605734
16.679143,0.137402,-0.082980,-0.613167
16.689153,0.133155,-0.083017,-0.602497
16.699193,0.137386,-0.088314,-0.614261
16.729253,0.137373,-0.094737,-0.611087
16.729253,0.137373,-0.094737,-0.611087
16.739293,0.134220,-0.079786,-0.608888
16.749303,0.144908,-0.071297,-0.604546
16.759343,0.152374,-0.073493,-0.597058
16.769384,0.144834,-0.094761,-0.611066
16.789434,0.150252,-0.069209,-0.598112
16.799443,0.173647,-0.088508,-0.598138
16.809484,0.151302,-0.083167,-0.583220
16.819494,0.168362,-0.074628,-0.593814
16.829534,0.172624,-0.082178,-0.581020
16.839544,0.148114,-0.079952,-0.583213
16.849584,0.147067,-0.073546,-0.582118
16.859594,0.151346,-0.067148,-0.583144
16.869634,0.142826,-0.067140,-0.578895
16.879644,0.138547,-0.073539,-0.577868
16.889684,0.147131,-0.053281,-0.576681
16.899694,0.133276,-0.057548,-0.568193
16.909734,0.142831,-0.066077,-0.577821
16.929784,0.135453,-0.044770,-0.561718
16.939824,0.126859,-0.062842,-0.573577
16.949834,0.115250,-0.038393,-0.541447
16.959874,0.130093,-0.048964,-0.574571
16.969884,0.123738,-0.049070,-0.547884
16.979924,0.115219,-0.045833,-0.548960
16.989934,0.126937,-0.043700,-0.556395
16.999974,0.130131,-0.048007,-0.551066
17.009984,0.118412,-0.050141,-0.543631
17.020025,0.122689,-0.045888,-0.542530
17.030034,0.137648,-0.038516,-0.530704
17.040075,0.137617,-0.048113,-0.533954
17.050115,0.113084,-0.054436,-0.535120
17.080175,0.123801,-0.046038,-0.511550
17.090215,0.124846,-0.047054,-0.523302
17.100225,0.143028,-0.036540,-0.500770
17.110265,0.149348,-0.056790,-0.513667
17.120275,0.123823,-0.049338,-0.491269
17.150365,0.133454,-0.039798,-0.482652
17.160375,0.120621,-0.050390,-0.492351
17.170415,0.117469,-0.039751,-0.481628
17.180425,0.140920,-0.043072,-0.473033
17.190465,0.128136,-0.046280,-0.463469
17.200506,0.113213,-0.042992,-0.470973
17.210515,0.119625,-0.045224,-0.454942
17.220556,0.133481,-0.045269,-0.454904
17.230565,0.113259,-0.042061,-0.442126
17.240606,0.135630,-0.045332,-0.443148
17.250615,0.144135,-0.053908,-0.442097
17.260656,0.137801,-0.043309,-0.420700
17.270665,0.122858,-0.045346,-0.431433
17.280706,0.123944,-0.043259,-0.421806
17.290715,0.135682,-0.043343,-0.412160
17.300756,0.131444,-0.039098,-0.403606
17.310766,0.119749,-0.028381,-0.403588
17.320806,0.116560,-0.028395,-0.398256
17.330816,0.129333,-0.035928,-0.395051
17.350896,0.104884,-0.022046,-0.377962
17.360925,0.124067,-0.024259,-0.374715
17.370965,0.116592,-0.031731,-0.370498
17.380975,0.108092,-0.026399,-0.363019
17.391015,0.109170,-0.024287,-0.358733
17.401025,0.110241,-0.025383,-0.353394
17.421075,0.096385,-0.031802,-0.341712
17.431115,0.092173,-0.017945,-0.333113
17.441125,0.093207,-0.026467,-0.338491
17.451165,0.079376,-0.026498,-0.322506
17.461175,0.077249,-0.025428,-0.321439
17.471215,0.091112,-0.024420,-0.318191
17.481256,0.071933,-0.027607,-0.308645
17.491265,0.069805,-0.027610,-0.306515
17.501306,0.082603,-0.029833,-0.296876
17.511316,0.091146,-0.027761,-0.289365
17.521356,0.075171,-0.024515,-0.287258
17.531366,0.062401,-0.024534,-0.274474
17.541406,0.076259,-0.023511,-0.274431
17.561456,0.083766,-0.017219,-0.255153
17.571466,0.078434,-0.016113,-0.259435
17.581506,0.082692,-0.022575,-0.250908
17.591516,0.065650,-0.019321,-0.249872
17.601556,0.077376,-0.022599,-0.242377
17.611566,0.066742,-0.015099,-0.240235
17.621606,0.050761,-0.015067,-0.236006
17.631646,0.049720,-0.010832,-0.227443
17.641656,0.062475,-0.021538,-0.230663
17.651696,0.063558,-0.020519,-0.221042
17.661706,0.064634,-0.016246,-0.222087
17.671746,0.043339,-0.017320,-0.206127
17.681756,0.039070,-0.016208,-0.212543
17.701806,0.065703,-0.025951,-0.202902
17.711847,0.062517,-0.023825,-0.198628
17.721856,0.049773,-0.007770,-0.197519
17.731897,0.041208,-0.023776,-0.194413
17.741906,0.047626,-0.016332,-0.192224
17.751947,0.070007,-0.018556,-0.188968
17.771997,0.048708,-0.016386,-0.181539
17.771997,0.048708,-0.016386,-0.181539
17.782037,0.043402,-0.009976,-0.178319
17.792047,0.044448,-0.016382,-0.179414
17.802087,0.054010,-0.022780,-0.187964
17.812097,0.055126,-0.020790,-0.158042
17.822137,0.045547,-0.007873,-0.172962
17.842187,0.037016,-0.015371,-0.162339
17.852197,0.058316,-0.016468,-0.170831
17.862237,0.060428,-0.028262,-0.162335
17.872247,0.054059,-0.019703,-0.161244
17.882287,0.032730,-0.024979,-0.160260
17.892297,0.027430,-0.028286,-0.134653
17.902337,0.049844,-0.009071,-0.148387
17.912378,0.060438,-0.033678,-0.146338
17.922387,0.046623,-0.025145,-0.134585
17.932428,0.035957,-0.024007,-0.142087
17.942437,0.025334,-0.020850,-0.125010
17.952478,0.029611,-0.012290,-0.131367
17.962487,0.053036,-0.026300,-0.120686
17.982537,0.049816,-0.032682,-0.123930
17.992578,0.037112,-0.014597,-0.100379
18.002587,0.030698,-0.015593,-0.111083
18.012628,0.033923,-0.017846,-0.088652
18.022638,0.042468,-0.010393,-0.089662
18.032678,0.060511,-0.031754,-0.101463
18.042688,0.038193,-0.020036,-0.080105
18.052728,0.030728,-0.013533,-0.095050
18.062768,0.033981,-0.012643,-0.059786
18.072778,0.019010,-0.019979,-0.079090
18.082818,0.027567,-0.014717,-0.068359
18.082818,0.027567,-0.014717,-0.068359
18.092828,0.058459,-0.017996,-0.073630
18.112878,0.022267,-0.014791,-0.049146
18.132928,0.017976,-0.024383,-0.050272
18.132928,0.017976,-0.024383,-0.050272
18.152978,0.037190,-0.013766,-0.050168
18.152978,0.037190,-0.013766,-0.050168
18.163018,0.025439,-0.027647,-0.042789
18.173028,0.029685,-0.022220,-0.064116
18.183068,0.018030,-0.011629,-0.037393
18.223169,0.037177,-0.022345,-0.042731
18.223169,0.037177,-0.022345,-0.042731
18.233209,0.037220,-0.019248,-0.020284
18.253259,0.006337,-0.011687,-0.017129
18.263269,0.010556,-0.020179,-0.031044
18.263269,0.010556,-0.020179,-0.031044
18.273309,-0.001166,-0.026609,-0.018289
18.283319,-0.016040,-0.011629,-0.013986
18.293359,0.002039,-0.020181,-0.024659
18.303369,-0.001146,-0.022362,-0.012928
18.323419,-0.011786,-0.021310,-0.002270
18.343499,-0.015015,-0.027662,-0.011923
18.353509,-0.038411,-0.014821,-0.001244
18.353509,-0.038411,-0.014821,-0.001244
18.363567,-0.021450,-0.033978,-0.026925
18.373577,-0.019242,-0.023452,0.004109
18.383617,-0.007580,-0.027605,-0.028993
18.393627,-0.008600,-0.026670,-0.000150
18.413677,-0.008598,-0.027754,0.003050
18.413677,-0.008598,-0.027754,0.003050
18.423718,-0.010746,-0.026618,-0.009770
18.433727,-0.019240,-0.020228,-0.000149
18.443768,-0.014986,-0.022368,-0.002284
18.453777,-0.009677,-0.025554,-0.009762
18.463818,0.004247,-0.007505,0.003181
18.493908,-0.000084,-0.021278,-0.017192
18.493908,-0.000084,-0.021278,-0.017192
18.503918,-0.006481,-0.024481,-0.012952
18.523968,-0.016056,-0.019120,-0.010817
18.523968,-0.016056,-0.019120,-0.010817
18.534008,-0.027689,0.001097,0.012747
18.564068,0.002073,-0.014902,-0.011815
18.564068,0.002073,-0.014902,-0.011815
18.574108,0.010607,-0.020340,0.003138
18.584118,0.002059,-0.022398,-0.007578
18.594158,-0.011761,-0.012772,-0.001161
18.604168,-0.011709,-0.002164,0.013844
18.624218,0.000014,-0.005431,0.019202
18.624218,0.000014,-0.005431,0.019202
18.634258,0.020249,-0.001139,0.001119
18.644299,0.029870,-0.001261,0.020373
18.654308,0.026610,-0.018287,0.009601
18.664349,0.033048,-0.003367,0.011826
18.674358,0.033033,-0.011935,0.017126
18.704449,-0.003191,-0.007551,0.018115
18.704449,-0.003191,-0.007551,0.018115
18.714459,-0.001033,-0.002254,0.025624
18.724499,-0.005290,-0.002260,0.029885
18.734509,0.014950,0.000938,0.017137
18.744549,0.014973,0.004097,0.026766
18.754559,0.025572,-0.009755,0.012843
18.764599,0.026647,-0.013018,0.024581
18.774639,0.037324,-0.002343,0.018252
18.784649,0.026625,-0.016181,0.016020
18.794689,0.024562,-0.001309,0.034245
18.804699,0.012772,-0.013990,0.013856
18.814739,0.003222,-0.004398,0.024557
18.824749,0.000064,0.007339,0.028877
18.834789,0.019220,-0.000174,0.023553
18.844799,0.011746,-0.004416,0.022444
18.854839,0.010667,-0.004372,0.013896
18.864849,0.017100,0.003027,0.025699
18.874889,0.025582,-0.004400,0.009664
18.884899,0.019223,0.009509,0.008644
18.904949,0.017053,-0.007597,0.013898
18.904949,0.017053,-0.007597,0.013898
18.914990,0.003221,-0.000086,0.016032
18.925030,0.001093,0.000989,0.016031
18.935040,-0.011707,-0.002169,0.014912
18.945080,-0.006381,-0.004332,0.017053
18.955090,0.004314,0.007366,0.020343
18.975140,0.014967,0.003039,0.024625
18.975140,0.014967,0.003039,0.024625
18.985180,0.023448,-0.007617,0.013916
18.995190,0.023472,-0.001230,0.018219
19.005230,0.014944,-0.003353,0.021390
19.015240,0.026647,-0.006555,0.012861
19.025280,0.022391,-0.005488,0.016059
19.045330,0.005344,-0.002219,0.013891
19.045330,0.005344,-0.002219,0.013891
19.055340,-0.013815,0.006382,0.014947
19.065380,-0.019175,0.000032,0.006356
19.075420,-0.023442,-0.009636,0.021254
19.085430,-0.028723,0.010697,0.015994
19.095470,-0.024507,-0.006404,0.015925
19.125530,-0.004270,-0.012892,0.019155
19.125530,-0.004270,-0.012892,0.019155
19.135571,0.005346,-0.003302,0.017091
19.145580,-0.000009,-0.009667,0.011705
19.155621,0.018106,-0.014023,0.017075
19.165630,0.022364,-0.012943,0.011751
19.185680,0.011737,-0.006542,0.020298
19.185680,0.011737,-0.006542,0.020298
19.195721,0.005313,-0.013971,0.014904
19.205761,-0.003203,-0.010745,0.015964
19.215771,-0.004273,-0.010726,0.012756
19.225811,-0.006413,-0.016079,0.016998
19.235821,-0.037309,-0.008478,0.011607
19.265911,-0.026648,-0.006367,0.009510
19.275921,-0.051149,-0.005249,0.015857
19.285961,-0.029875,-0.014879,0.005188
19.295971,-0.021310,-0.010721,0.023391
19.306011,-0.014957,-0.017074,0.007355
19.336071,0.003152,-0.022487,0.010584
19.336071,0.003152,-0.022487,0.010584
19.346111,-0.002143,-0.017191,0.023413
19.356152,0.010613,-0.020361,0.007411
19.366202,0.002108,-0.019321,0.019142
19.376244,0.009543,-0.022498,0.008466
19.386253,0.001024,-0.023569,0.014846
19.396293,0.010605,-0.024642,0.009527
19.406303,-0.003243,-0.026774,0.018024
19.416344,-0.004326,-0.025642,0.005208
19.426353,-0.018139,-0.014958,0.013766
19.436393,-0.014972,-0.026721,0.014787
19.446404,-0.018202,-0.031994,0.003003
19.476494,-0.012834,-0.026748,0.019066
19.476494,-0.012834,-0.026748,0.019066
19.486534,-0.023503,-0.027756,0.013691
19.496543,-0.014986,-0.033138,0.016893
19.506583,-0.007530,-0.036381,0.020103
19.516594,-0.006466,-0.036380,0.019038
19.536643,-0.002200,-0.035326,0.019055
19.536643,-0.002200,-0.035326,0.019055
19.546684,-0.001127,-0.035349,0.023330
19.556694,-0.006461,-0.036395,0.022242
19.566733,0.004185,-0.039623,0.020120
19.576743,-0.006493,-0.049220,0.024318
19.586784,-0.006458,-0.036405,0.024379
19.606834,-0.011812,-0.042770,0.018993
19.616844,-0.012890,-0.045960,0.016838
19.626885,-0.000091,-0.050339,0.030740
19.636924,0.006299,-0.046038,0.020096
19.646934,-0.002200,-0.039633,0.026512
19.656975,0.009479,-0.052456,0.020074
19.687034,0.007400,-0.038611,0.029748
19.687034,0.007400,-0.038611,0.029748
19.697075,0.003116,-0.043917,0.025438
19.707084,0.002075,-0.035375,0.026544
19.717124,0.001005,-0.033205,0.020142
19.727135,0.007407,-0.034324,0.026563
19.747184,-0.000013,-0.020427,0.028745
19.747184,-0.000013,-0.020427,0.028745
19.757224,-0.010705,-0.031057,0.025461
19.767235,-0.021351,-0.025672,0.023320
19.777274,-0.016003,-0.020365,0.026565
19.787314,-0.007509,-0.028906,0.020139
19.797325,-0.014944,-0.023577,0.027621
19.827415,-0.022362,-0.013993,0.038328
19.827415,-0.022362,-0.013993,0.038328
19.837425,-0.012793,-0.010719,0.017005
19.847466,-0.009604,-0.017167,0.023393
19.857474,-0.023405,-0.009753,0.045822
19.867516,-0.007502,-0.018156,0.005234
19.887565,-0.020245,-0.008569,0.019131
19.887565,-0.020245,-0.008569,0.019131
19.897574,-0.023460,-0.014966,0.019092
19.907616,-0.044719,-0.005381,0.039375
19.917656,-0.040497,-0.005264,0.011614
19.927665,-0.033043,-0.013887,0.023344
19.937706,-0.036230,-0.010678,0.024418
19.957755,-0.026621,-0.011838,0.037258
19.967765,-0.025593,-0.016032,0.020149
19.977806,-0.004323,-0.031037,0.016933
19.987816,-0.025566,-0.013962,0.034046
19.997855,-0.010704,-0.022442,0.010546
20.007866,-0.020274,-0.026789,0.032932
20.027915,-0.022439,-0.033139,0.022214
20.027915,-0.022439,-0.033139,0.022214
20.037955,-0.018147,-0.020318,0.018013
20.047966,-0.017109,-0.032084,0.021165
20.058006,-0.025636,-0.035285,0.026468
20.068046,-0.029889,-0.025609,0.015819
20.078056,-0.042700,-0.035194,0.018943
20.098105,-0.052303,-0.034050,0.009308
20.108146,-0.056546,-0.039487,0.032772
20.118157,-0.049064,-0.024499,0.020045
20.128197,-0.043787,-0.038354,0.010380
20.138206,-0.036269,-0.032097,0.037135
20.148247,-0.021410,-0.039490,0.009368
20.168296,-0.025619,-0.027799,0.024367
20.168296,-0.025619,-0.027799,0.024367
20.178306,-0.006473,-0.037433,0.015828
20.188347,-0.022412,-0.033225,0.040373
20.198357,-0.027774,-0.028795,0.010469
20.208396,-0.024540,-0.025687,0.028652
20.218437,-0.028779,-0.027905,0.048926
20.238486,-0.022438,-0.032066,0.021151
20.248496,-0.026678,-0.027816,0.028636
20.258537,-0.039501,-0.035210,0.020020
20.268547,-0.045813,-0.014984,0.038258
20.278586,-0.044820,-0.029838,0.016826
20.288596,-0.034134,-0.026729,0.029689
20.308646,-0.019265,-0.037386,0.014725
20.308646,-0.019265,-0.037386,0.014725
20.318687,-0.033080,-0.035311,0.037129
20.328697,-0.040539,-0.024522,0.019000
20.338738,-0.041605,-0.029904,0.028585
20.348777,-0.036294,-0.034172,0.024307
20.358787,-0.016086,-0.045955,0.017898
20.388903,-0.038498,-0.059791,0.023111
20.398913,-0.042741,-0.057686,0.032724
20.408953,-0.010790,-0.062027,0.025314
20.418963,0.012629,-0.079245,0.037048
20.429003,-0.002325,-0.088788,0.032688
20.439013,-0.001190,-0.064234,0.033876
20.449053,0.010466,-0.090991,0.038054
20.459063,0.027517,-0.087807,0.030639
20.469103,0.028590,-0.093221,0.045571
20.479113,0.024317,-0.095328,0.042345
20.489153,0.009370,-0.096276,0.027344
20.499193,0.007299,-0.089998,0.056210
20.509203,0.022146,-0.100584,0.026291
20.519244,0.026433,-0.112523,0.063634
20.529253,0.000868,-0.096324,0.043343
20.539294,0.014648,-0.109058,0.016616
20.549303,0.009467,-0.087966,0.076521
20.559344,0.029575,-0.108049,0.018798
20.569353,0.037093,-0.105021,0.050880
20.589403,0.033866,-0.108149,0.036969
20.599444,0.012649,-0.085774,0.062654
20.609453,0.024362,-0.085777,0.055209
20.619494,0.042474,-0.086894,0.053117
20.629504,0.047839,-0.083793,0.071306
20.639544,0.061686,-0.079501,0.057478
20.649584,0.061674,-0.083772,0.057458
20.659594,0.051021,-0.083753,0.060633
20.669634,0.051098,-0.059221,0.067159
20.679644,0.036145,-0.068769,0.063867
20.689684,0.046811,-0.066673,0.064975
20.699694,0.035136,-0.049553,0.066092
20.709734,0.045746,-0.064518,0.061778
20.729784,0.045749,-0.055909,0.047932
20.739794,0.026635,-0.044221,0.073571
20.749834,0.027685,-0.043096,0.060761
20.759844,0.014913,-0.036646,0.060756
20.769884,0.002153,-0.022697,0.055446
20.779925,0.008534,-0.031291,0.061832
20.789934,0.012758,-0.039798,0.051121
20.799975,0.005330,-0.029104,0.053288
20.809985,0.006399,-0.028040,0.053296
20.820025,-0.005325,-0.028002,0.053263
20.830035,-0.030855,-0.014071,0.060736
20.840075,-0.023481,-0.033212,0.038234
20.850085,-0.045768,-0.007585,0.054317
20.870135,-0.023458,-0.027897,0.043600
20.880175,-0.034081,-0.016126,0.045763
20.890185,-0.034093,-0.018241,0.041480
20.900225,-0.043652,-0.015082,0.057492
20.910235,-0.045778,-0.006476,0.045776
20.920275,-0.038320,-0.007568,0.045791
20.930315,-0.029764,-0.005536,0.061848
20.940325,-0.015987,-0.024723,0.044704
20.950365,-0.031885,-0.005565,0.069319
20.960375,-0.015966,-0.014018,0.039413
20.970415,-0.010539,-0.008959,0.094999
20.980425,-0.035033,0.000752,0.090705
20.990465,-0.003205,-0.020432,0.031941
21.020525,-0.021259,-0.015190,0.065030
21.030566,-0.032925,-0.012105,0.098127
21.040575,-0.001038,-0.016243,0.047990
21.050616,-0.004134,-0.019786,0.121671
21.060625,-0.024512,-0.038705,0.071319
21.080706,-0.045730,-0.014169,0.091673
21.090716,-0.023435,-0.037666,0.076668
21.100756,-0.046771,-0.004549,0.090647
21.110766,-0.038358,-0.031149,0.063839
21.120806,-0.040442,-0.026982,0.087354
21.130816,-0.062784,-0.014109,0.090558
21.140856,-0.040499,-0.030034,0.055293
21.150866,-0.037231,-0.025959,0.094845
21.160906,-0.058567,-0.022595,0.075574
21.170916,-0.058594,-0.031129,0.073398
21.180956,-0.068151,-0.017204,0.071301
21.190966,-0.029830,-0.029026,0.060668
21.201006,-0.035127,-0.029109,0.082018
21.221056,-0.046885,-0.027887,0.057422
21.231097,-0.038329,-0.017235,0.057496
21.241106,-0.041578,-0.035375,0.056333
21.251147,-0.046889,-0.024643,0.048892
21.261156,-0.057550,-0.012750,0.025418
21.271197,-0.051149,-0.019254,0.041428
21.291247,-0.055468,-0.017985,0.001898
21.301256,-0.086268,0.003317,0.035028
21.311297,-0.060766,-0.009449,0.007265
21.321307,-0.052250,-0.012676,0.006205
21.331347,-0.072386,0.010727,0.039375
21.341357,-0.032084,-0.021093,-0.034371
21.361437,-0.042645,-0.005206,0.000926
21.371468,-0.040544,-0.008346,-0.014038
21.381508,-0.038313,0.021493,-0.002141
21.391518,-0.020293,-0.012724,-0.005457
21.401558,-0.011745,-0.003125,-0.008593
21.411568,-0.026664,-0.005238,-0.003303
21.431618,-0.025645,-0.010480,-0.024689
21.441658,-0.050041,0.012927,0.010605
21.451668,-0.007575,-0.001768,-0.072668
21.461708,-0.030876,-0.015083,0.048981
21.471718,-0.053335,0.016475,-0.059889
21.481758,-0.003319,-0.029765,-0.026855
21.501808,-0.036344,-0.008163,-0.055686
21.511849,-0.020320,-0.021257,-0.007634
21.521859,-0.023564,-0.021100,-0.038621
21.531899,-0.031010,-0.014658,-0.040747
21.541909,-0.020328,-0.013691,-0.026826
21.551949,-0.015062,-0.023203,-0.051426
21.561959,-0.029918,-0.011514,-0.028979
21.571999,-0.012921,-0.022162,-0.047142
21.582009,-0.020347,-0.013630,-0.039645
21.592049,-0.010746,-0.011535,-0.037472
21.602059,0.011557,-0.030750,-0.054592
21.612099,-0.000123,-0.024385,-0.037503
21.622109,-0.002286,-0.023204,-0.059936
21.642189,-0.003308,-0.017952,-0.040686
21.652199,-0.001242,-0.028522,-0.065299
21.662239,-0.009697,-0.015795,-0.040694
21.672249,0.013689,-0.031835,-0.052455
21.682289,-0.000156,-0.019972,-0.067392
21.692299,-0.005444,-0.012545,-0.053485
21.702339,0.006210,-0.029599,-0.068489
21.712349,-0.004365,-0.007204,-0.054525
21.722390,-0.004435,-0.028527,-0.062104
21.732399,-0.005463,-0.008177,-0.073761
21.742440,-0.018249,-0.013531,-0.062071
21.752449,-0.022502,-0.009240,-0.063130
21.762490,-0.005494,-0.015617,-0.081273
21.792580,0.007299,-0.026444,-0.058857
21.802590,-0.001107,0.004442,-0.035233
21.812630,0.032835,-0.026391,-0.087628
21.822640,0.029758,-0.019218,-0.021373
21.832680,0.043514,-0.020028,-0.085432
21.842690,0.046791,-0.010594,-0.050127
21.862740,0.062706,-0.024423,-0.072581
21.872780,0.041548,0.007462,-0.025487
21.872780,0.041548,0.007462,-0.025487
21.892830,0.054274,-0.012845,-0.030889
21.892830,0.054274,-0.012845,-0.030889
21.902840,0.034110,0.021420,-0.036124
21.932930,0.032953,-0.005219,-0.048003
21.932930,0.032953,-0.005219,-0.048003
21.942971,0.010607,0.007669,-0.048004
21.952980,0.028720,0.002240,-0.041570
21.963021,0.017045,0.025823,-0.052173
21.973030,0.005283,0.006593,-0.042683
21.993080,0.008397,-0.008237,-0.070518
21.993080,0.008397,-0.008237,-0.070518
22.003121,-0.006358,0.025757,-0.022328
22.023171,0.007413,0.000128,-0.032025
22.023171,0.007413,0.000128,-0.032025
22.033181,-0.002158,0.011941,-0.039473
22.043221,0.018013,-0.005110,-0.060863
22.073311,0.015919,-0.001990,-0.041626
22.073311,0.015919,-0.001990,-0.041626
22.083321,0.022335,0.002230,-0.035179
22.093361,0.007426,-0.000991,-0.021348
22.103371,0.031959,0.008561,-0.025508
22.113411,0.038300,-0.011755,-0.024519
22.143471,0.044703,-0.013958,-0.014897
22.143471,0.044703,-0.013958,-0.014897
22.153511,0.042556,-0.009593,-0.033042
22.163521,0.027654,-0.010683,-0.018134
22.173561,0.030848,-0.007449,-0.026655
22.183571,0.019153,-0.002117,-0.017048
22.203621,0.001008,-0.010592,-0.019275
22.203621,0.001008,-0.010592,-0.019275
22.213662,-0.016006,0.001191,-0.014994
22.223702,0.006305,-0.012664,-0.036362
22.233712,-0.021363,-0.008398,-0.016122
22.243752,-0.028877,-0.014670,-0.039673
22.253762,-0.033101,-0.008315,-0.025768
22.283852,-0.045917,-0.013577,-0.033306
22.283852,-0.045917,-0.013577,-0.033306
22.293862,-0.035299,-0.027490,-0.034410
22.303902,-0.041730,-0.040279,-0.035557
22.313912,-0.048092,-0.032823,-0.026994
22.323952,-0.024669,-0.036053,-0.037626
22.354012,0.001990,-0.039414,-0.022613
22.354012,0.001990,-0.039414,-0.022613
22.364062,0.001976,-0.043681,-0.023702
22.374102,0.004096,-0.045803,-0.027979
22.384112,-0.009721,-0.040494,-0.011969
22.394152,0.006223,-0.049029,-0.024784
22.414203,0.011590,-0.040548,-0.015115
22.414203,0.011590,-0.040548,-0.015115
22.424212,0.016904,-0.042671,-0.021519
22.434253,0.008404,-0.034110,-0.019366
22.444262,0.006333,-0.020291,-0.004351
22.454303,0.019034,-0.037288,-0.032170
22.464312,0.012742,-0.021436,0.007411
22.494403,0.000022,-0.000071,0.014955
22.494403,0.000022,-0.000071,0.014955
22.504443,0.022271,-0.018035,-0.040616
22.514453,0.005312,0.004345,-0.019193
22.524493,0.022299,-0.014892,-0.027782
22.534503,0.019215,0.011690,-0.000960
22.564593,0.012821,0.013862,-0.004172
22.564593,0.012821,0.013862,-0.004172
22.574603,0.045731,-0.003069,-0.059708
22.584643,0.011784,0.003004,0.034230
22.594653,0.013722,-0.001776,-0.085428
22.604693,0.012792,-0.008666,0.017086
22.634753,0.000029,0.006372,0.007508
22.634753,0.000029,0.006372,0.007508
22.644793,0.016941,-0.018013,-0.041699
22.654834,-0.009652,-0.011630,-0.018241
22.664843,-0.014916,0.006497,-0.008556
22.674884,0.015859,-0.025500,-0.038532
22.694934,0.008428,-0.015875,-0.036371
22.694934,0.008428,-0.015875,-0.036371
22.704943,0.013771,-0.020245,-0.019286
22.714984,-0.002180,-0.012768,-0.008612
22.724994,0.004129,-0.031905,-0.031118
22.735034,-0.013922,-0.014825,-0.017200
22.745044,-0.003302,-0.022279,-0.028956
22.765094,-0.002288,-0.043662,-0.024782
22.775134,0.017993,-0.029824,-0.028933
22.785144,0.008424,-0.033098,-0.007611
22.795184,0.016903,-0.041593,-0.023651
22.805224,-0.001152,-0.026654,-0.008675
22.815234,0.011573,-0.037264,-0.032191
22.835284,-0.000116,-0.028718,-0.024705
22.845324,-0.016148,-0.041451,-0.031219
22.855334,-0.016089,-0.026555,-0.019398
22.865374,-0.008644,-0.026529,-0.030059
22.875384,-0.022479,-0.021164,-0.025799
22.885424,-0.013962,-0.022240,-0.030054
22.915484,-0.021411,-0.016866,-0.032185
22.925525,-0.016106,-0.028656,-0.026885
22.935565,-0.029931,-0.015780,-0.030067
22.945575,-0.004361,-0.017989,-0.032144
22.955615,-0.006479,-0.021257,-0.017210
22.975665,-0.019262,-0.015850,-0.022561
22.975665,-0.019262,-0.015850,-0.022561
22.985675,-0.008612,-0.015860,-0.027872
22.995715,-0.006459,-0.011625,-0.021437
23.005725,0.002093,-0.004193,-0.018174
23.015765,0.007411,-0.004175,-0.025636
23.025775,-0.007484,-0.000978,-0.013912
23.045825,-0.006439,-0.008457,-0.013945
23.055865,-0.007480,0.001163,-0.014970
23.065875,-0.017111,-0.010533,-0.019325
23.075915,-0.021356,-0.007346,-0.012912
23.085955,-0.020266,0.001194,-0.012869
23.095965,-0.005392,-0.017019,-0.010778
23.116015,-0.008604,-0.022348,-0.010812
23.126056,-0.013923,-0.028824,0.007303
23.136065,-0.003272,-0.027761,0.000928
23.146106,0.005251,-0.034242,0.010535
23.156115,0.002028,-0.040613,0.005155
23.166156,0.010561,-0.040661,0.009451
23.186206,0.014765,-0.064185,0.012556
23.196215,0.004174,-0.044973,0.022231
23.206256,0.011544,-0.072718,0.012506
23.216266,0.003057,-0.065275,0.025337
23.226306,0.005159,-0.073806,0.021029
23.236346,-0.000205,-0.086603,0.020954
23.266406,-0.001305,-0.097264,0.017696
23.266406,-0.001305,-0.097264,0.017696
23.276446,-0.011974,-0.103657,0.021909
23.286456,-0.007703,-0.099389,0.019805
23.296496,-0.004518,-0.104744,0.020856
23.306506,-0.009848,-0.109034,0.028299
23.336596,0.009315,-0.112260,0.019791
23.336596,0.009315,-0.112260,0.019791
23.346606,-0.001313,-0.099395,0.016618
23.356646,-0.003422,-0.092995,0.019847
23.366716,0.013610,-0.099448,0.017727
23.376725,0.012576,-0.090927,0.023105
23.396775,0.005116,-0.087673,0.017759
23.406816,-0.000191,-0.084493,0.026305
23.416826,-0.006619,-0.086522,0.008118
23.426866,-0.015086,-0.068370,0.014590
23.436876,-0.009793,-0.079046,0.010281
23.446916,-0.009760,-0.069455,0.014599
23.466966,-0.012944,-0.065178,0.015679
23.476976,-0.012935,-0.058745,0.010368
23.487016,-0.018227,-0.051303,0.021071
23.497026,-0.015066,-0.058738,0.010363
23.507066,-0.016110,-0.051264,0.011463
23.517106,-0.017146,-0.043816,0.017905
23.537156,-0.008615,-0.041702,0.016870
23.537156,-0.008615,-0.041702,0.016870
23.547166,-0.013934,-0.036330,0.013676
23.557206,-0.010755,-0.040592,0.009392
23.567216,-0.016015,-0.022481,0.022282
23.577256,-0.009701,-0.042711,0.005112
23.587266,-0.013879,-0.021425,0.023361
23.617357,-0.021373,-0.033143,0.022217
23.617357,-0.021373,-0.033143,0.022217
23.627366,-0.007535,-0.033132,0.010505
23.637407,-0.023493,-0.028864,0.022231
23.647416,-0.009659,-0.032072,0.013708
23.657457,-0.002179,-0.028928,0.021221
23.687547,-0.020300,-0.031015,0.023298
23.687547,-0.020300,-0.031015,0.023298
23.697557,-0.007535,-0.036366,0.016899
23.707597,-0.006453,-0.031035,0.017995
23.717607,-0.004316,-0.033213,0.025468
23.727647,0.002064,-0.036418,0.021198
23.747697,-0.007497,-0.025712,0.022290
23.747697,-0.007497,-0.025712,0.022290
23.757707,-0.006495,-0.047059,0.018987
23.767747,-0.012838,-0.035352,0.031844
23.777757,-0.018191,-0.037415,0.020069
23.787797,-0.014993,-0.039581,0.024340
23.797837,-0.021380,-0.038508,0.027532
23.817888,-0.023494,-0.038556,0.039277
23.827897,-0.006484,-0.044938,0.022202
23.837938,-0.006458,-0.042868,0.036099
23.847947,-0.025641,-0.047118,0.044571
23.857988,-0.000105,-0.048143,0.017932
23.867997,-0.017098,-0.042889,0.047819
23.888047,-0.011767,-0.037527,0.039314
23.898088,-0.003264,-0.039634,0.027577
23.908097,-0.014974,-0.036408,0.030765
23.918138,-0.012799,-0.025781,0.040435
23.928148,0.003144,-0.035389,0.028683
23.938188,-0.012788,-0.017197,0.031930
23.958238,-0.026620,-0.015072,0.043652
23.968278,-0.022420,-0.024581,0.019050
23.978288,-0.029824,-0.009656,0.029782
23.988328,-0.035159,-0.011775,0.029757
23.998338,-0.014951,-0.022479,0.021217
24.008378,-0.039422,-0.010683,0.027614
24.028428,-0.019145,-0.004371,0.034109
24.038438,-0.018085,-0.005433,0.031971
24.048478,-0.011718,-0.011831,0.025549
24.058488,-0.016982,0.005218,0.037365
24.068528,0.000001,-0.010775,0.020245
24.078538,-0.013795,0.002009,0.036291
24.098619,0.005372,-0.004461,0.036313
24.108628,-0.006353,-0.002267,0.032018
24.118669,-0.004269,-0.016127,0.025549
24.128679,-0.010603,0.002014,0.033095
24.138719,-0.003200,-0.016140,0.027688
24.148729,-0.015929,-0.002286,0.042674
24.168779,-0.010639,-0.011875,0.034097
24.168779,-0.010639,-0.011875,0.034097
24.178819,-0.014920,-0.016112,0.029793
24.188829,-0.012772,-0.011863,0.033023
24.198869,-0.010622,-0.008696,0.039453
24.208879,0.002110,-0.022560,0.026604
24.218919,0.000025,-0.016236,0.045856
24.238969,0.004280,-0.018381,0.044790
24.249009,0.013814,-0.032230,0.030864
24.259019,0.004289,-0.013021,0.040542
24.269059,0.007427,-0.031156,0.034056
24.279069,0.007456,-0.021555,0.036238
24.289109,-0.006401,-0.021505,0.035132
24.309159,-0.004273,-0.024731,0.038327
24.319169,-0.006393,-0.019374,0.036210
24.329210,-0.005346,-0.021473,0.027657
24.339219,-0.019189,-0.024697,0.041490
24.349260,-0.021307,-0.017195,0.037247
24.359269,-0.024536,-0.018161,0.018006
24.379370,-0.016005,-0.018204,0.021234
24.389380,-0.020238,-0.015052,0.035124
24.399420,-0.024520,-0.019290,0.030819
24.409430,-0.009600,-0.018255,0.027661
24.419470,-0.015973,-0.016149,0.038335
24.429480,-0.015991,-0.020401,0.034042
24.449530,-0.007469,-0.024725,0.039386
24.459570,-0.004268,-0.020439,0.034074
24.469580,-0.003229,-0.026819,0.027638
24.479620,-0.007457,-0.021532,0.041538
24.489630,0.002082,-0.030010,0.021228
24.499670,-0.018126,-0.026847,0.043620
24.519720,0.003135,-0.036436,0.024405
24.519720,0.003135,-0.036436,0.024405
24.529761,-0.020247,-0.023641,0.044697
24.539770,-0.008568,-0.023538,0.014820
24.549811,-0.014924,-0.021487,0.037245
24.559820,-0.020295,-0.029953,0.024371
24.569861,-0.016003,-0.019287,0.024433
24.589911,-0.020293,-0.026729,0.020114
24.599920,-0.026660,-0.023565,0.032929
24.609961,-0.010711,-0.031036,0.021188
24.619971,-0.020270,-0.022492,0.027611
24.630011,-0.013884,-0.025717,0.027614
24.640021,-0.002186,-0.033215,0.024406
24.660101,-0.004320,-0.033198,0.022263
24.670111,-0.004285,-0.026846,0.034044
24.680151,-0.003241,-0.028935,0.023355
24.690161,-0.009581,-0.012931,0.030891
24.700201,0.004220,-0.025730,0.018050
24.710211,-0.005333,-0.017206,0.028746
24.730261,-0.001089,-0.020388,0.021265
24.740301,-0.015963,-0.005409,0.025567
24.750311,-0.008536,-0.012868,0.017007
24.760351,-0.026605,-0.005425,0.036220
24.770361,-0.021309,-0.001029,0.006346
24.780401,-0.013795,0.006316,0.028834
24.800451,-0.015969,-0.002160,0.015969
24.810492,-0.028717,0.005291,0.029856
24.820502,-0.007479,-0.014998,0.014863
24.830542,-0.018046,0.004138,0.040562
24.840552,-0.005305,-0.000059,0.016008
24.850592,-0.002103,-0.004391,0.026679
24.870642,0.008516,-0.016153,0.022380
24.880652,-0.003170,-0.008695,0.034133
24.890692,-0.001020,0.003091,0.024581
24.900702,0.008511,-0.021523,0.028763
24.910742,-0.006319,0.009475,0.033142
24.920752,-0.000037,-0.019273,0.010591
24.940802,-0.005364,-0.019261,0.011644
24.950842,-0.015924,0.003084,0.036290
24.960882,-0.002122,-0.007565,0.020254
24.970892,-0.001069,-0.012913,0.021300
24.980932,-0.027658,-0.001155,0.037306
24.990942,-0.011721,-0.004279,0.009561
25.010992,-0.021307,-0.008575,0.021265
25.021033,-0.018070,0.005292,0.022408
25.031042,-0.012771,-0.008633,0.027697
25.041083,-0.022367,-0.003207,0.015946
25.051092,-0.019144,-0.000064,0.026652
25.061133,-0.018085,-0.001125,0.024514
25.081183,-0.015947,0.001003,0.024530
25.091192,-0.008498,0.001015,0.017073
25.101233,-0.019137,0.003145,0.025599
25.111273,-0.008498,0.002093,0.014941
25.121283,-0.010625,0.002084,0.018140
25.131323,-0.022331,0.006374,0.022401
25.151373,-0.012754,0.003159,0.018139
25.161383,-0.014869,0.014964,0.007507
25.171423,-0.020204,0.011767,0.009614
25.181433,-0.012709,0.023485,0.010758
25.191473,-0.010645,0.006457,-0.003204
25.201483,-0.019112,0.018146,0.014988
25.211523,-0.029811,0.015078,-0.006420
25.221533,-0.023382,0.019258,0.008572
25.231573,-0.012761,0.013955,-0.006379
25.241614,-0.011735,0.001152,-0.009641
25.251623,-0.036137,0.027808,0.016055
25.261664,-0.011755,0.004446,-0.028853
25.271673,-0.013828,0.004266,0.010664
25.291723,-0.010653,0.007561,-0.010676
25.301764,-0.007458,0.001092,-0.000015
25.311773,0.007401,-0.011685,-0.018194
25.321814,-0.012791,-0.002109,0.003159
25.331824,-0.006441,-0.013837,-0.005424
25.341864,-0.004306,-0.009547,-0.010739
25.361914,-0.007492,-0.009572,-0.003271
25.371940,0.004185,-0.021312,-0.012908
25.381980,-0.004344,-0.026659,-0.005479
25.392020,-0.011798,-0.023426,-0.006553
25.402030,-0.002210,-0.024520,-0.007600
25.412070,-0.004347,-0.027727,-0.005484
25.432120,-0.013950,-0.031973,-0.004463
25.442130,-0.019274,-0.029814,-0.005535
25.452170,-0.019288,-0.033003,-0.008755
25.462180,-0.020338,-0.030894,-0.002339
25.472220,-0.020354,-0.032999,-0.008758
25.482230,-0.018242,-0.037253,-0.014113
25.502280,-0.015038,-0.039440,-0.005569
25.512320,-0.009697,-0.035185,-0.005534
25.522330,-0.011832,-0.038397,-0.002351
25.532371,-0.004373,-0.038416,-0.003398
25.542411,0.004173,-0.035276,0.004118
25.552421,0.011618,-0.038483,-0.000150
25.572471,0.018024,-0.036384,0.003082
25.582511,0.015892,-0.036377,0.003076
25.592521,0.010559,-0.039578,0.006251
25.602561,0.010558,-0.034188,-0.004405
25.612571,0.004229,-0.018219,0.010608
25.612571,0.004229,-0.018219,0.010608
25.632621,0.013752,-0.034188,-0.006533
25.652671,0.018035,-0.024571,-0.010749
25.662711,0.003153,-0.019258,0.005259
25.672751,-0.018148,-0.008464,-0.004363
25.672751,-0.018148,-0.008464,-0.004363
25.682761,-0.007486,-0.006358,-0.005392
25.702811,-0.011762,-0.008460,-0.009686
25.722861,-0.006460,-0.013776,-0.018243
25.722861,-0.006460,-0.013776,-0.018243
25.732902,-0.021337,-0.006328,-0.002225
25.752952,-0.012840,-0.010572,-0.013972
25.762961,-0.017088,-0.011682,-0.002239
25.762961,-0.017088,-0.011682,-0.002239
25.773002,-0.007544,-0.018024,-0.022539
25.813102,-0.030959,-0.014820,-0.006565
25.823142,-0.018215,-0.024412,-0.019394
25.823142,-0.018215,-0.024412,-0.019394
25.833152,-0.026736,-0.026556,-0.011950
25.843192,-0.027777,-0.016936,-0.012975
25.873252,-0.022478,-0.023321,-0.021537
25.873252,-0.022478,-0.023321,-0.021537
25.883292,-0.028862,-0.022257,-0.016208
25.893302,-0.029932,-0.020087,-0.022610
25.903342,-0.027804,-0.022235,-0.021546
25.913352,-0.014994,-0.015879,-0.019344
25.933402,-0.021378,-0.014816,-0.014016
25.933402,-0.021378,-0.014816,-0.014016
25.943442,-0.012875,-0.014768,-0.030015
25.953452,-0.017106,-0.010548,-0.016120
25.963492,-0.009666,-0.016970,-0.018267
25.973533,-0.006460,-0.008391,-0.027831
25.983542,-0.011755,-0.003095,-0.015002
26.003592,0.004220,-0.007419,-0.014978
26.003592,0.004220,-0.007419,-0.014978
26.013633,0.003155,-0.004186,-0.020307
26.023643,0.006341,-0.007390,-0.022450
26.033683,0.007450,0.003240,-0.012783
26.043693,0.011697,0.003277,-0.023453
26.053733,0.011712,0.002153,-0.011708
26.073783,0.023454,0.010674,-0.014840
26.073783,0.023454,0.010674,-0.014840
26.083793,0.040459,-0.002156,-0.023399
26.093833,0.046876,-0.001170,-0.010558
26.103873,0.035176,0.007412,-0.010550
26.113883,0.047936,0.003154,-0.022285
26.123923,0.035176,0.007412,-0.010550
26.153983,0.022377,0.005328,-0.012732
26.153983,0.022377,0.005328,-0.012732
26.164023,0.027680,0.001084,-0.022351
26.174033,0.020237,-0.000025,-0.008490
26.184073,0.009588,0.009676,-0.020224
26.194083,0.010625,-0.003163,-0.016009
26.214133,0.006354,-0.002045,-0.023493
26.214133,0.006354,-0.002045,-0.023493
26.224174,-0.007493,-0.006338,-0.009665
26.234183,-0.000054,-0.008447,-0.020336
26.244224,-0.002185,-0.010596,-0.016079
26.254264,-0.013902,-0.012735,-0.007576
26.264274,-0.010725,-0.012679,-0.021454
26.294364,-0.003287,-0.025559,-0.012949
26.294364,-0.003287,-0.025559,-0.012949
26.304374,-0.011797,-0.027738,0.001973
26.314414,-0.000112,-0.031962,-0.016175
26.324424,-0.000098,-0.036315,0.000896
26.334464,-0.005429,-0.036292,-0.000187
26.354514,-0.005494,-0.056552,-0.006692
26.354514,-0.005494,-0.056552,-0.006692
26.364524,-0.014008,-0.052253,-0.006695
26.374594,-0.047024,-0.059763,0.023088
26.384604,-0.045032,-0.051788,-0.083690
26.394644,-0.029997,-0.064044,0.013501
26.404684,-0.070242,-0.024865,0.111851
26.424735,-0.038407,-0.052538,0.070147
26.424735,-0.038407,-0.052538,0.070147
26.434744,-0.092964,-0.032334,-0.099754
26.444785,-0.011890,-0.071609,0.019924
26.454794,-0.092765,-0.016806,0.003937
26.464835,-0.015320,-0.103176,-0.077442
26.474844,-0.041665,-0.031867,-0.007743
26.494894,-0.022516,-0.044745,-0.007751
26.494894,-0.022516,-0.044745,-0.007751
26.504935,-0.021503,-0.045659,-0.040868
26.514944,-0.011906,-0.045706,-0.037637
26.524985,-0.019289,-0.036232,-0.003429
26.535025,0.015790,-0.047901,-0.043980
26.545035,-0.009662,-0.022370,-0.005474
26.575125,-0.003274,-0.020214,-0.013991
26.575125,-0.003274,-0.020214,-0.013991
26.585135,0.016892,-0.035095,-0.042848
26.595175,-0.006471,-0.026667,-0.002280
26.605185,0.011640,-0.015930,-0.026749
26.615225,0.032919,-0.033117,-0.020362
26.645285,0.027637,-0.023554,-0.006444
26.645285,0.027637,-0.023554,-0.006444
26.655325,0.011619,-0.028791,-0.017195
26.665335,0.013779,-0.015963,-0.021402
26.675375,0.008447,-0.022399,-0.011833
26.685416,-0.003290,-0.024471,-0.017216
26.705466,0.020135,-0.033096,-0.016124
26.715475,0.013760,-0.028828,-0.010780
26.725516,0.003147,-0.014931,-0.006471
26.735526,0.025479,-0.027773,-0.016084
26.745566,0.019076,-0.035269,-0.007592
26.755576,0.002090,-0.011724,-0.006459
26.775626,0.022326,-0.013900,-0.011754
26.785666,-0.024515,0.007626,-0.014987
26.795676,-0.022385,0.002239,-0.006461
26.805716,-0.002207,-0.016989,-0.019314
26.815726,-0.020334,-0.021212,-0.017248
26.825766,-0.035210,-0.006228,-0.014014
26.845816,-0.052222,0.006628,-0.010795
26.845816,-0.052222,0.006628,-0.010795
26.855856,-0.046992,-0.020007,-0.027998
26.865866,-0.042694,-0.014747,-0.014075
26.875906,-0.048033,-0.020084,-0.010910
26.885916,-0.025698,-0.027546,-0.029043
26.895956,-0.032039,-0.019078,-0.008725
26.926016,-0.009642,-0.018124,-0.000112
26.926016,-0.009642,-0.018124,-0.000112
26.936057,0.007371,-0.023438,-0.017182
26.946066,0.001021,-0.019251,0.005253
26.956107,0.012762,-0.006419,-0.006404
26.966116,0.010603,-0.018174,-0.003261
26.996207,0.002080,-0.011693,-0.012868
26.996207,0.002080,-0.011693,-0.012868
27.006247,-0.005357,-0.008511,-0.003260
27.016257,0.005363,0.016032,-0.006319
27.026297,0.013823,-0.010714,-0.002149
27.036307,-0.004270,-0.004273,0.003173
27.046347,0.008532,0.004264,-0.004229
27.056357,0.029805,-0.011829,-0.003178
27.066397,0.018128,0.000989,0.004328
27.076407,0.006376,-0.001038,-0.010669
27.086447,0.011697,-0.007493,-0.004276
27.096457,0.007444,0.001104,-0.012793
27.106497,0.003195,0.002151,-0.005322
27.126547,-0.008538,0.002219,-0.011763
27.136588,-0.010651,0.005400,-0.005345
27.146597,-0.002157,-0.005297,-0.007509
27.156638,-0.002135,0.001095,-0.004274
27.166647,-0.002137,0.003256,-0.009604
27.176688,0.006351,-0.009576,-0.011778
27.206747,0.013794,-0.016008,-0.011788
27.206747,0.013794,-0.016008,-0.011788
27.216788,-0.006416,-0.006377,-0.002184
27.226798,-0.001156,-0.029873,-0.005486
27.236838,-0.001126,-0.021350,-0.001172
27.246848,-0.003265,-0.024552,-0.000125
27.266928,-0.004358,-0.035233,0.000889
27.266928,-0.004358,-0.035233,0.000889
27.276938,-0.008638,-0.034090,-0.011935
27.286978,-0.022474,-0.034106,0.000845
27.296988,-0.011840,-0.038372,-0.007692
27.307028,-0.025696,-0.038327,-0.007730
27.317038,-0.023541,-0.029790,-0.007683
27.337088,-0.021417,-0.036235,-0.001299
27.347128,-0.024639,-0.042612,-0.005611
27.357138,-0.025652,-0.027693,0.001935
27.367178,0.002012,-0.039485,-0.007659
27.377192,-0.007576,-0.041620,-0.001286
27.387232,-0.017144,-0.030894,-0.004466
27.417323,-0.006502,-0.037342,-0.003399
27.417323,-0.006502,-0.037342,-0.003399
27.427332,0.003084,-0.038430,-0.005514
27.437372,0.002035,-0.035249,-0.000161
27.447383,0.006279,-0.042743,0.000883
27.457423,-0.004373,-0.039494,-0.001267
27.477472,-0.000124,-0.045926,0.000851
27.487483,-0.012886,-0.035200,-0.000202
27.497522,-0.008647,-0.040523,-0.006625
27.507532,-0.005464,-0.046951,-0.004510
27.517573,-0.012901,-0.038384,-0.004490
27.527583,-0.018226,-0.036225,-0.005563
27.547663,-0.000095,-0.034169,-0.001230
27.557673,-0.006489,-0.033075,-0.002311
27.567712,0.000992,-0.025624,-0.002255
27.577722,0.000981,-0.029895,-0.002275
27.587763,0.003115,-0.027756,-0.004396
27.597773,0.002049,-0.028831,-0.002267
27.617822,0.007362,-0.035261,-0.001215
27.617822,0.007362,-0.035261,-0.001215
27.627864,-0.004324,-0.024569,0.004145
27.637872,0.003103,-0.030950,-0.006547
27.647913,-0.007534,-0.025596,-0.002278
27.657923,-0.001170,-0.036291,-0.003380
27.667964,-0.008628,-0.034121,-0.005526
27.688013,-0.005430,-0.031980,-0.008712
27.698054,-0.007547,-0.029863,-0.003367
27.708064,-0.005430,-0.035209,-0.003386
27.718103,-0.009686,-0.028757,-0.009777
27.728114,-0.005414,-0.029875,-0.002293
27.738154,0.002031,-0.030926,-0.010823
27.758203,-0.011817,-0.029828,-0.007651
27.768214,-0.000113,-0.034113,-0.012980
27.778254,-0.002256,-0.038378,-0.013006
27.788263,-0.004349,-0.021259,-0.018272
27.798304,-0.003324,-0.036213,-0.018340
27.808314,-0.010744,-0.021238,-0.018290
27.828363,-0.003266,-0.011620,-0.024633
27.838404,-0.005442,-0.025476,-0.028977
27.848445,-0.021384,-0.009411,-0.027877
27.858453,-0.017148,-0.013646,-0.038568
27.868495,-0.017128,-0.006170,-0.038532
27.878504,-0.023548,-0.012532,-0.043921
27.898553,-0.019253,-0.000798,-0.043854
27.898553,-0.019253,-0.000798,-0.043854
27.908595,-0.012881,-0.003977,-0.053465
27.918604,-0.026702,0.003498,-0.043854
27.928644,-0.024566,0.006710,-0.047038
27.938655,-0.021388,0.008916,-0.064110
27.948695,-0.034151,0.015335,-0.057705
27.968744,-0.017118,0.013189,-0.067282
27.978785,-0.034179,0.012192,-0.070539
27.988795,-0.046903,0.036801,-0.071526
27.998834,-0.018178,0.016407,-0.069407
28.008845,-0.006463,0.016394,-0.074715
28.018885,-0.014971,0.027136,-0.082165
28.048945,-0.027749,0.032528,-0.084312
28.048945,-0.027749,0.032528,-0.084312
28.058985,-0.003258,0.030363,-0.094936
28.068994,0.012714,0.021742,-0.089592
28.079035,-0.008611,0.018608,-0.089666
28.089045,-0.004327,0.030376,-0.097076
28.119135,0.010582,0.030368,-0.105580
28.119135,0.010582,0.030368,-0.105580
28.129176,0.030742,0.000426,-0.111007
28.139185,0.023278,0.000460,-0.113164
28.149225,0.027604,0.023946,-0.114109
28.159236,0.055216,-0.009225,-0.119531
28.169275,0.036077,0.003622,-0.113114
28.179285,0.041386,0.005822,-0.130180
28.189326,0.046691,-0.008124,-0.120617
28.199336,0.044551,-0.000550,-0.139815
28.209375,0.026437,-0.003736,-0.131335
28.219385,0.030671,-0.010122,-0.138831
28.229426,0.028550,-0.005838,-0.139885
28.249475,0.038111,-0.010080,-0.152697
28.249475,0.038111,-0.010080,-0.152697
28.259486,0.027445,-0.015406,-0.148479
28.269526,0.035980,-0.006844,-0.158029
28.279565,0.044491,-0.010056,-0.162293
28.289575,0.031693,-0.013218,-0.162343
28.299616,0.016795,-0.004626,-0.162344
28.319666,0.054077,-0.007910,-0.170802
28.329676,0.042364,-0.001444,-0.175077
28.339717,0.035940,-0.012103,-0.175145
28.349725,0.033833,-0.000324,-0.180436
28.359766,0.041293,0.001808,-0.184678
28.369799,0.045542,-0.001394,-0.187886
28.389849,0.051906,-0.005626,-0.200707
28.389849,0.051906,-0.005626,-0.200707
28.399890,0.041264,-0.000257,-0.199643
28.409930,0.030652,0.014714,-0.196397
28.419940,0.045509,-0.004522,-0.203924
28.429980,0.027384,-0.003365,-0.210378
28.439990,0.024228,0.012675,-0.212448
28.470080,0.022074,0.009518,-0.221014
28.480090,0.028448,0.009563,-0.234883
28.490130,0.015639,-0.000027,-0.230691
28.500140,0.003931,0.008580,-0.236024
28.510180,0.016711,0.013954,-0.251986
28.530230,0.022065,0.014934,-0.237012
28.540240,0.029493,0.006396,-0.243441
28.550280,0.026284,0.007520,-0.253058
28.560321,0.028444,0.019271,-0.255133
28.570330,0.050777,0.004272,-0.260484
28.580371,0.046491,0.007591,-0.281844
28.600421,0.046497,0.008649,-0.279702
28.610430,0.053964,0.009682,-0.277541
28.620471,0.039018,0.006578,-0.288279
28.630481,0.039010,0.010910,-0.301077
28.640521,0.042146,-0.002907,-0.317157
28.650531,0.023017,0.005597,-0.295805
28.670581,0.049572,-0.001747,-0.341700
28.680621,0.029380,-0.002942,-0.301169
28.690631,0.045284,-0.010272,-0.342820
28.700671,0.063380,-0.016723,-0.346005
28.710711,0.047462,-0.005040,-0.321425
28.720721,0.060177,-0.013463,-0.355612
28.740771,0.061238,-0.023144,-0.341769
28.750811,0.054779,-0.031540,-0.368531
28.760821,0.056980,-0.015609,-0.351359
28.770861,0.076121,-0.031690,-0.351382
28.780871,0.066473,-0.040101,-0.372812
28.790911,0.062280,-0.020920,-0.360983
28.810961,0.106959,-0.041265,-0.380184
28.810961,0.106959,-0.041265,-0.380184
28.820971,0.076097,-0.032692,-0.365273
28.831012,0.110169,-0.038082,-0.378023
28.841021,0.097353,-0.049808,-0.373841
28.851062,0.079255,-0.040118,-0.378118
28.861102,0.106980,-0.033790,-0.380148
28.881152,0.097348,-0.046559,-0.383440
28.891162,0.100562,-0.042313,-0.380206
28.901202,0.127164,-0.051960,-0.390860
28.911212,0.125059,-0.049883,-0.376970
28.921252,0.122889,-0.056218,-0.390892
28.931262,0.133571,-0.047709,-0.390823
28.951312,0.120751,-0.054034,-0.399434
28.951312,0.120751,-0.054034,-0.399434
28.961352,0.115455,-0.045504,-0.392999
28.971362,0.133564,-0.050918,-0.389770
28.981402,0.120753,-0.055118,-0.396234
28.991442,0.107977,-0.047580,-0.400507
29.001452,0.097326,-0.048644,-0.394132
29.021502,0.093099,-0.033664,-0.397277
29.021502,0.093099,-0.033664,-0.397277
29.031543,0.099428,-0.043170,-0.424010
29.041552,0.093038,-0.045320,-0.416560
29.051593,0.079192,-0.036686,-0.426172
29.061602,0.085592,-0.037800,-0.420818
29.071643,0.058945,-0.035552,-0.426222
29.081652,0.062150,-0.023740,-0.442181
29.091693,0.061048,-0.039780,-0.436919
29.101702,0.052532,-0.026857,-0.453973
29.111743,0.072830,-0.014148,-0.445311
29.121752,0.075953,-0.030081,-0.465673
29.131793,0.064254,-0.021504,-0.464597
29.141833,0.051470,-0.017171,-0.468885
29.161883,0.075923,-0.037526,-0.472118
29.171893,0.030121,-0.012688,-0.498832
29.181933,0.057843,-0.006351,-0.502999
29.191943,0.074802,-0.040580,-0.503114
29.201983,0.038594,-0.023319,-0.514883
29.211993,0.043930,-0.014743,-0.525509
29.242083,0.049183,-0.033907,-0.541609
29.252093,0.045988,-0.032829,-0.541612
29.262133,0.066201,-0.034929,-0.562931
29.272143,0.067250,-0.046730,-0.552302
29.282183,0.076841,-0.042449,-0.560800
29.292224,0.071465,-0.062748,-0.555570
29.302233,0.084221,-0.072380,-0.559853
29.312274,0.093859,-0.054242,-0.562946
29.322283,0.107651,-0.076708,-0.564082
29.332324,0.119353,-0.086373,-0.560891
29.342334,0.105513,-0.075603,-0.570492
29.352374,0.095906,-0.083067,-0.566281
29.362384,0.111934,-0.067090,-0.568298
29.372439,0.123557,-0.093741,-0.586551
29.382449,0.100183,-0.077737,-0.567312
29.392489,0.113986,-0.079771,-0.598262
29.402499,0.138476,-0.091628,-0.591841
29.412539,0.112964,-0.072368,-0.582206
29.422579,0.122506,-0.079778,-0.602511
29.452639,0.137418,-0.084108,-0.600354
29.452639,0.137418,-0.084108,-0.600354
29.472689,0.132122,-0.069115,-0.605639
29.482729,0.149139,-0.078751,-0.612047
29.492739,0.121463,-0.067997,-0.608868
29.502779,0.128956,-0.053045,-0.614117
29.512789,0.150201,-0.074432,-0.622705
29.522830,0.132126,-0.063740,-0.613091
29.532839,0.137471,-0.053037,-0.621571
29.532839,0.137471,-0.053037,-0.621571
29.552889,0.133189,-0.059426,-0.622681
29.562930,0.126780,-0.058282,-0.634444
29.572970,0.142783,-0.052999,-0.633307
29.572970,0.142783,-0.052999,-0.633307
29.593020,0.149157,-0.055110,-0.642913
29.593020,0.149157,-0.055110,-0.642913
29.613070,0.141767,-0.035919,-0.631092
29.623080,0.145955,-0.055085,-0.646126
29.623080,0.145955,-0.055085,-0.646126
29.643130,0.151314,-0.046579,-0.641798
29.663180,0.143875,-0.039084,-0.640715
29.663180,0.143875,-0.039084,-0.640715
29.673220,0.150262,-0.040158,-0.643907
29.683230,0.154482,-0.056190,-0.643972
29.703280,0.137470,-0.040106,-0.646079
29.703280,0.137470,-0.040106,-0.646079
29.713320,0.160886,-0.050856,-0.647133
29.743411,0.166222,-0.045509,-0.652434
29.743411,0.166222,-0.045509,-0.652434
29.753420,0.135258,-0.066777,-0.650484
29.763461,0.124669,-0.038951,-0.655723
29.773470,0.153415,-0.047568,-0.659957
29.783511,0.150192,-0.057168,-0.660011
29.803561,0.141684,-0.050738,-0.658936
29.803561,0.141684,-0.050738,-0.658936
29.813570,0.140601,-0.050679,-0.670689
29.823611,0.118241,-0.046365,-0.664321
29.833621,0.137432,-0.043219,-0.665322
29.843661,0.140608,-0.046392,-0.673873
29.853701,0.137433,-0.045375,-0.661059
29.883761,0.120379,-0.043163,-0.665368
29.883761,0.120379,-0.043163,-0.665368
29.893801,0.146975,-0.051712,-0.682427
29.903811,0.135289,-0.048561,-0.663216
29.913851,0.140603,-0.044221,-0.681341
29.923861,0.147003,-0.047491,-0.671725
29.943911,0.125659,-0.048409,-0.688879
29.943911,0.125659,-0.048409,-0.688879
29.953951,0.125658,-0.057023,-0.673965
29.963961,0.124607,-0.046295,-0.683531
29.974001,0.139513,-0.049527,-0.687778
29.984011,0.119284,-0.052761,-0.667553
29.994051,0.119243,-0.054785,-0.691064
30.014101,0.101122,-0.055795,-0.691119
30.014101,0.101122,-0.055795,-0.691119
30.024142,0.108579,-0.056887,-0.691103
30.034152,0.108621,-0.046248,-0.682507
30.044192,0.103211,-0.071825,-0.690120
30.054202,0.111783,-0.056917,-0.686822
30.064242,0.114951,-0.065451,-0.691126
30.074252,0.112827,-0.066547,-0.683660
30.084292,0.113897,-0.062254,-0.688977
30.094302,0.119214,-0.066543,-0.688983
30.104342,0.117075,-0.070823,-0.685804
30.114352,0.110695,-0.065462,-0.685797
30.124392,0.125595,-0.067596,-0.696448
30.134402,0.106436,-0.069771,-0.675147
30.144442,0.109585,-0.072858,-0.701858
30.154482,0.122440,-0.065566,-0.671878
30.164492,0.112797,-0.078300,-0.682647
30.174532,0.113879,-0.067583,-0.691139
30.184542,0.121363,-0.067683,-0.675096
30.194582,0.108496,-0.087862,-0.690182
30.204592,0.101129,-0.059049,-0.680452
30.214632,0.113926,-0.063423,-0.667619
30.224642,0.139439,-0.082688,-0.676185
30.234683,0.121364,-0.075225,-0.661245
30.244692,0.126700,-0.066648,-0.671871
30.254733,0.137351,-0.076355,-0.659069
30.264742,0.137374,-0.071040,-0.653703
30.274783,0.155518,-0.061488,-0.653608
30.294833,0.150184,-0.066841,-0.647238
30.304873,0.154495,-0.053002,-0.640752
30.314883,0.151240,-0.070043,-0.648319
30.324923,0.151290,-0.058351,-0.636513
30.334933,0.154500,-0.057324,-0.630090
30.344973,0.149130,-0.067951,-0.637633
30.365023,0.143829,-0.059405,-0.634402
30.365023,0.143829,-0.059405,-0.634402
30.375076,0.155605,-0.048835,-0.619365
30.385116,0.139595,-0.055175,-0.622644
30.395126,0.132135,-0.049766,-0.632253
30.405166,0.140708,-0.042399,-0.615103
30.415176,0.142786,-0.059472,-0.619450
30.425216,0.155624,-0.042432,-0.618266
30.435257,0.154539,-0.056372,-0.605517
30.445266,0.143891,-0.048827,-0.612988
30.455307,0.148185,-0.040323,-0.607595
30.465316,0.147110,-0.046752,-0.602287
30.475357,0.166298,-0.044673,-0.603292
30.485366,0.152447,-0.046795,-0.596931
30.495407,0.147105,-0.047815,-0.603360
30.515457,0.145004,-0.034978,-0.606510
30.525466,0.142897,-0.036125,-0.588362
30.535507,0.154614,-0.037221,-0.590471
30.545517,0.145038,-0.030777,-0.591535
30.555557,0.140774,-0.035070,-0.584090
30.585647,0.133314,-0.036124,-0.581979
30.585647,0.133314,-0.036124,-0.581979
30.595657,0.132269,-0.029723,-0.579815
30.605697,0.137591,-0.035105,-0.574485
30.615707,0.134380,-0.041513,-0.572387
30.625747,0.132256,-0.041531,-0.567052
30.645797,0.126943,-0.035101,-0.568105
30.645797,0.126943,-0.035101,-0.568105
30.655807,0.125869,-0.039379,-0.565992
30.665847,0.113104,-0.031878,-0.562787
30.675857,0.118434,-0.032973,-0.560641
30.685897,0.115220,-0.039375,-0.559612
30.695907,0.101398,-0.030817,-0.553200
30.725998,0.103543,-0.027635,-0.549974
30.725998,0.103543,-0.027635,-0.549974
30.736038,0.114199,-0.031972,-0.543556
30.746048,0.103548,-0.035192,-0.532919
30.756088,0.120614,-0.028824,-0.536046
30.766098,0.126986,-0.040623,-0.529675
30.786148,0.130231,-0.033244,-0.511472
30.796188,0.133437,-0.035435,-0.501859
30.806198,0.127045,-0.032191,-0.506134
30.816238,0.134518,-0.034412,-0.493306
30.826248,0.137726,-0.031223,-0.492213
30.836288,0.130274,-0.034458,-0.480499
30.866378,0.146297,-0.031393,-0.462281
30.866378,0.146297,-0.031393,-0.462281
30.876388,0.123924,-0.033501,-0.452738
30.886428,0.129317,-0.019716,-0.435567
30.896438,0.151636,-0.036825,-0.446268
30.906478,0.127206,-0.021931,-0.417424
30.926529,0.145318,-0.033818,-0.400338
30.936538,0.132531,-0.030553,-0.404631
30.946579,0.137895,-0.023140,-0.394967
30.956588,0.147477,-0.032833,-0.384305
30.966629,0.142204,-0.027608,-0.356521
30.976638,0.132616,-0.024358,-0.359737
30.996688,0.126250,-0.026584,-0.336264
30.996688,0.126250,-0.026584,-0.336264
31.006729,0.135843,-0.026615,-0.336238
31.016769,0.125193,-0.029840,-0.324532
31.026779,0.127371,-0.021375,-0.309531
31.036819,0.125206,-0.029881,-0.315986
31.046829,0.116710,-0.027793,-0.299977
31.076919,0.097596,-0.022568,-0.262618
31.076919,0.097596,-0.022568,-0.262618
31.086929,0.103957,-0.027868,-0.275444
31.096969,0.091182,-0.028950,-0.263734
31.106979,0.090148,-0.021506,-0.256224
31.117019,0.084806,-0.026834,-0.255196
31.137069,0.082675,-0.032217,-0.244545
31.137069,0.082675,-0.032217,-0.244545
31.147079,0.080598,-0.019456,-0.231672
31.157119,0.088007,-0.035474,-0.237068
31.167160,0.060324,-0.032240,-0.224311
31.177169,0.061443,-0.013021,-0.224217
31.187210,0.073112,-0.032277,-0.225344
31.217269,0.060391,-0.023834,-0.195429
31.217269,0.060391,-0.023834,-0.195429
31.227310,0.059271,-0.039819,-0.201917
31.237320,0.043377,-0.015285,-0.184753
31.247360,0.043365,-0.018479,-0.186905
31.257370,0.052938,-0.029220,-0.180520
31.277420,0.028457,-0.024934,-0.166681
31.277420,0.028457,-0.024934,-0.166681
31.287460,0.046596,-0.018596,-0.164464
31.297500,0.047667,-0.024000,-0.151668
31.307510,0.045516,-0.026088,-0.160230
31.317550,0.026346,-0.024993,-0.152800
31.327560,0.038131,-0.014453,-0.131353
31.347610,0.029604,-0.018733,-0.123920
31.357650,0.044534,-0.016655,-0.121732
31.367660,0.051915,-0.042280,-0.128242
31.377719,0.034942,-0.020931,-0.114301
31.387729,0.039212,-0.023122,-0.105754
31.397769,0.042398,-0.028482,-0.103634
31.427829,0.029604,-0.037044,-0.090892
31.427829,0.029604,-0.037044,-0.090892
31.437870,0.030705,-0.023155,-0.092959
31.447910,0.033906,-0.024253,-0.088683
31.457920,0.026443,-0.033916,-0.072726
31.467960,0.020058,-0.023155,-0.085511
31.488010,0.022183,-0.034990,-0.068470
31.488010,0.022183,-0.034990,-0.068470
31.498020,0.027532,-0.026454,-0.070551
31.508060,0.036077,-0.024387,-0.061972
31.518070,0.030698,-0.041446,-0.064204
31.528110,0.014810,-0.014777,-0.047030
31.538120,0.032860,-0.030779,-0.063079
31.558170,0.009456,-0.024376,-0.046022
31.558170,0.009456,-0.024376,-0.046022
31.568210,0.026490,-0.025449,-0.056662
31.578220,0.013704,-0.032958,-0.040710
31.588260,0.004144,-0.023336,-0.036418
31.598300,0.009467,-0.023333,-0.040676
31.608310,0.009477,-0.024442,-0.032136
31.628360,0.019051,-0.030880,-0.032140
31.638401,0.000971,-0.022324,-0.022535
31.648410,0.007346,-0.026591,-0.027879
31.658451,0.008454,-0.012726,-0.024606
31.668460,0.020103,-0.038380,-0.027900
31.678501,-0.002225,-0.024474,-0.017213
31.698551,0.025463,-0.033108,-0.017178
31.698551,0.025463,-0.033108,-0.017178
31.708560,0.009474,-0.039514,-0.006570
31.718601,-0.002232,-0.021220,-0.027880
31.728641,0.013778,-0.022421,-0.010750
31.738651,0.013711,-0.042676,-0.018324
31.748691,-0.006484,-0.026627,-0.010826
31.768741,0.026521,-0.035242,-0.018253
31.778751,0.011589,-0.042700,-0.011920
31.788791,-0.005360,-0.008501,-0.005396
31.798801,0.023324,-0.035232,-0.018262
31.808841,0.011603,-0.041667,-0.004438
31.818851,-0.017112,-0.013762,-0.013999
31.838901,-0.018239,-0.037263,-0.011977
31.838901,-0.018239,-0.037263,-0.011977
31.848941,-0.006510,-0.026546,-0.027917
31.858951,-0.023535,-0.035196,0.006178
31.868991,-0.013957,-0.028718,-0.015129
31.879032,-0.012910,-0.034046,-0.018356
31.889041,-0.022481,-0.029774,-0.011953
31.919132,-0.001178,-0.035188,-0.010852
31.929142,-0.002216,-0.025578,-0.009741
31.939182,-0.001151,-0.030966,-0.000150
31.949192,0.012660,-0.039489,-0.014039
31.959232,0.002051,-0.028836,-0.001199
31.979282,-0.005415,-0.033104,0.003033
31.979282,-0.005415,-0.033104,0.003033
31.989292,0.001011,-0.024606,0.008432
31.999332,-0.001139,-0.027773,0.002002
32.009342,0.008464,-0.029990,0.012700
32.019382,0.025487,-0.035340,0.003108
32.029422,0.010623,-0.026854,0.025539
32.049472,0.018075,-0.025775,0.018088
32.049472,0.018075,-0.025775,0.018088
32.059482,0.001014,-0.030002,0.020157
32.069522,-0.001083,-0.020409,0.025538
32.079532,0.014871,-0.030052,0.021263
32.089572,-0.002137,-0.017211,0.027686
32.099582,-0.005320,-0.010783,0.025571
32.119632,0.005282,-0.030031,0.023373
32.129673,-0.008535,-0.017181,0.025532
32.139682,0.003192,-0.021536,0.035158
32.149723,0.011653,-0.038595,0.023350
32.159732,-0.006421,-0.027902,0.032965
32.169773,-0.006390,-0.011843,0.024495
32.189823,-0.001115,-0.033234,0.027613
32.189823,-0.001115,-0.033234,0.027613
32.199863,-0.020291,-0.028890,0.025444
32.209873,-0.025587,-0.020359,0.031879
32.219913,-0.019252,-0.035270,0.019008
32.229923,-0.030944,-0.023485,0.019031
32.239963,-0.032026,-0.026660,0.013672
32.260013,-0.038435,-0.035213,0.020023
32.270023,-0.025658,-0.036292,0.013644
32.280063,-0.045887,-0.031985,0.020018
32.290073,-0.041661,-0.041575,0.012507
32.300113,-0.025647,-0.034172,0.016859
32.310153,-0.028868,-0.043783,0.018941
32.330204,-0.019271,-0.038444,0.012583
32.330204,-0.019271,-0.038444,0.012583
32.340213,-0.036321,-0.042706,0.022130
32.350254,-0.028886,-0.041571,0.002928
32.360263,-0.019256,-0.039567,0.024329
32.370304,-0.005457,-0.055591,0.015745
32.380324,-0.020345,-0.042722,0.014697
32.400374,-0.020373,-0.046943,0.003994
32.400374,-0.020373,-0.046943,0.003994
32.410415,-0.033130,-0.049159,0.029586
32.420424,-0.027803,-0.039474,0.010419
32.430465,-0.024583,-0.034170,0.015794
32.440475,-0.011790,-0.036378,0.022228
32.450515,-0.010754,-0.042748,0.013655
32.480605,-0.011763,-0.028922,0.026536
32.490615,-0.006452,-0.028884,0.014801
32.500655,-0.006442,-0.029993,0.023341
32.510665,0.000989,-0.032077,0.007328
32.520705,-0.004315,-0.029984,0.020142
32.530715,-0.003219,-0.021465,0.024458
32.540755,0.003112,-0.034209,0.005188
32.550765,0.001051,-0.018270,0.023417
32.560805,-0.020279,-0.017077,0.011614
32.570815,-0.000041,-0.022492,0.013780
32.580855,-0.008546,-0.016067,0.015924
32.590865,-0.004299,-0.017108,0.007385
32.610946,-0.003226,-0.013903,0.006335
32.620955,-0.009606,-0.009621,0.008474
32.630996,-0.019175,-0.005353,0.015945
32.641006,-0.004252,0.001056,0.005334
32.651046,-0.008526,-0.008592,0.015959
32.661056,-0.000027,-0.014997,0.009543
32.681106,-0.006383,-0.002171,0.011722
32.691146,0.013818,-0.021469,0.013823
32.701156,-0.003190,-0.004322,0.012789
32.711196,-0.008528,-0.012894,0.022348
32.721206,-0.001117,-0.020302,0.003106
32.731246,-0.019184,-0.015020,0.027649
32.751296,-0.003272,-0.028839,0.003059
32.761336,-0.013866,-0.021465,0.031907
32.771346,0.008419,-0.035234,-0.007621
32.781386,-0.027718,-0.021430,0.034005
32.791396,-0.003250,-0.021368,0.004163
32.801436,0.009514,-0.038563,0.018004
32.811446,-0.003245,-0.026769,0.016956
32.821486,0.005257,-0.029950,0.006282
32.831496,0.002082,-0.031088,0.023359
32.841537,0.007375,-0.034223,0.005200
32.851546,-0.006421,-0.018210,0.015919
32.861587,0.007436,-0.017182,0.014894
32.871596,0.007416,-0.024657,0.014859
32.891677,0.009571,-0.018277,0.019168
32.901687,0.013838,-0.011838,0.009596
32.911727,-0.004299,-0.022494,0.016973
32.921737,0.004247,-0.013968,0.014901
32.931777,0.006334,-0.025681,0.006305
32.941787,-0.009599,-0.010719,0.014878
32.951827,-0.002186,-0.023518,0.006292
32.961837,-0.008564,-0.021397,0.013762
32.971877,-0.011798,-0.024504,-0.004421
32.981887,-0.004304,-0.022478,0.013769
32.991927,0.011660,-0.026767,0.006315
33.001937,-0.008556,-0.017115,0.011646
33.011977,0.002088,-0.019260,0.006324
33.032027,-0.008547,-0.012833,0.009530
33.042068,0.007371,-0.029901,-0.005462
33.052077,-0.014941,-0.016046,0.015906
33.062118,-0.012815,-0.007419,-0.003275
33.072127,0.012745,-0.018211,0.003154
33.082168,0.004189,-0.029941,0.005211
33.102218,0.001003,-0.023503,0.000960
33.102218,0.001003,-0.023503,0.000960
33.112227,-0.003244,-0.024618,0.013761
33.122268,-0.003255,-0.018119,-0.005436
33.132278,0.007406,-0.030012,0.018038
33.142318,0.008445,-0.027779,-0.003313
33.152328,-0.004357,-0.034160,-0.000174
33.162368,0.004184,-0.033155,0.007332
33.172408,-0.000109,-0.036279,-0.006581
33.182418,-0.014994,-0.034191,0.013684
33.192458,0.017994,-0.037365,-0.015082
33.202468,0.009468,-0.048113,0.005140
33.212508,0.008464,-0.029990,0.012700
33.222518,0.020114,-0.042722,-0.012965
33.242568,-0.001133,-0.024559,-0.000119
33.252608,0.010530,-0.042716,-0.007650
33.262618,-0.003268,-0.032083,0.011590
33.272658,0.004149,-0.035200,-0.011905
33.272658,0.004149,-0.035200,-0.011905
33.292708,0.002083,-0.016011,-0.003275
33.322799,0.011618,-0.032020,-0.011870
33.332809,-0.001108,-0.021406,0.010578
33.342849,0.015917,-0.020297,-0.009666
33.342849,0.015917,-0.020297,-0.009666
33.362899,-0.004319,-0.018121,-0.004371
33.382965,-0.003235,-0.013873,-0.000075
33.392975,-0.001135,-0.023476,-0.003319
33.392975,-0.001135,-0.023476,-0.003319
33.403015,0.006342,-0.020322,0.002058
33.413025,0.009527,-0.021369,-0.004348
33.433075,0.003153,-0.016029,-0.000067
33.453125,0.010618,-0.013913,-0.001105
33.453125,0.010618,-0.013913,-0.001105
33.473205,0.014919,0.001035,-0.003159
33.473205,0.014919,0.001035,-0.003159
33.483215,0.010595,-0.023534,0.000986
33.493255,-0.005350,-0.010687,0.005276
