time_tick,gyr_X_value,gyr_Y_value,gyr_Z_value
0.009962,-0.008579,-0.020273,0.002017
0.020002,-0.002181,-0.021382,0.006302
0.030012,-0.005379,-0.022445,0.007356
0.040053,-0.010707,-0.020276,0.004147
0.050062,-0.000051,-0.019228,0.000977
0.060103,-0.014997,-0.027718,-0.000173
0.070112,-0.002175,-0.019246,0.006312
0.080153,0.002087,-0.020333,0.007387
0.090193,-0.016039,-0.022405,0.006259
0.100203,-0.004320,-0.020272,-0.001176
0.110243,-0.002180,-0.019231,0.003108
0.120253,-0.012849,-0.023468,0.003058
0.130293,-0.010709,-0.021349,0.005210
0.140303,-0.004310,-0.018151,0.002039
0.150343,-0.002189,-0.021357,0.000961
0.160383,-0.010707,-0.020276,0.004147
0.170393,0.002076,-0.022454,0.004172
0.190443,-0.002189,-0.021357,0.000961
0.190443,-0.002189,-0.021357,0.000961
0.200483,-0.007516,-0.021344,0.002015
0.210493,-0.010722,-0.024538,0.001991
0.220534,-0.003242,-0.019238,0.005241
0.230574,-0.007513,-0.020277,0.002020
0.240584,-0.008580,-0.021346,0.003080
0.250624,-0.006452,-0.022421,0.003081
0.260634,-0.007517,-0.022417,0.003078
0.270674,-0.012836,-0.019201,0.004147
0.290724,-0.008583,-0.021336,0.000944
0.290724,-0.008583,-0.021336,0.000944
0.300764,-0.006453,-0.023494,0.004144
0.310774,-0.003247,-0.020300,0.004168
0.320814,-0.011771,-0.020278,0.005213
0.330824,-0.004318,-0.019204,-0.001171
0.340864,-0.005377,-0.019221,0.003099
0.350874,-0.007520,-0.023485,0.003073
0.360914,-0.006444,-0.019212,0.002028
0.370955,-0.007518,-0.021339,0.000946
0.391005,-0.001121,-0.021365,0.002032
0.391005,-0.001121,-0.021365,0.002032
0.401014,-0.008579,-0.021351,0.004148
0.411055,-0.010709,-0.020271,0.003079
0.421065,-0.000053,-0.019223,-0.000091
0.431105,-0.007514,-0.021349,0.003083
0.441145,-0.009653,-0.023473,0.001999
0.451155,-0.002181,-0.020304,0.004171
0.461217,-0.008574,-0.019210,0.003090
0.471227,-0.008585,-0.021331,-0.000125
0.481267,-0.004318,-0.022433,0.004155
0.491277,-0.008585,-0.022409,0.002007
0.501317,-0.007507,-0.019219,0.004161
0.511358,-0.008583,-0.021336,0.000944
0.521367,-0.006446,-0.019207,0.000960
0.531408,-0.003257,-0.023499,0.003084
0.541417,-0.007522,-0.023480,0.002005
0.551458,-0.013897,-0.018135,0.005217
0.561467,-0.002197,-0.024560,0.000946
0.571508,-0.010709,-0.020271,0.003079
0.581548,-0.002198,-0.026712,0.004140
0.591558,-0.007506,-0.018146,0.003098
0.601598,-0.006458,-0.023479,0.000939
0.611608,-0.012842,-0.019181,-0.000126
0.621648,-0.003257,-0.022421,0.000953
0.631658,-0.007520,-0.023485,0.003073
0.641698,-0.007512,-0.019204,0.000957
0.651738,-0.007513,-0.019198,-0.000112
0.661748,-0.007516,-0.020266,-0.000117
0.671788,-0.007523,-0.023475,0.000936
0.681798,-0.005390,-0.023487,0.002010
0.691838,-0.012840,-0.017035,-0.002253
0.701848,-0.008587,-0.020248,-0.003324
0.711889,-0.004331,-0.022392,-0.004391
0.721929,-0.011788,-0.023456,-0.000144
0.731939,-0.005388,-0.019185,-0.004379
0.741979,-0.013922,-0.020210,-0.007612
0.751989,-0.005410,-0.022348,-0.012939
0.762029,-0.003276,-0.023438,-0.009734
0.772039,-0.009677,-0.025554,-0.009762
0.782079,-0.006460,-0.020239,-0.006523
0.792119,-0.011803,-0.023411,-0.009757
0.802129,-0.005405,-0.020208,-0.013997
0.812169,-0.008609,-0.026640,-0.006559
0.822179,-0.005395,-0.022394,-0.003325
0.832219,-0.006461,-0.023469,-0.001197
0.842229,-0.009650,-0.019176,-0.003322
0.852269,-0.003256,-0.020270,-0.002241
0.862310,-0.011782,-0.021320,-0.000133
0.872319,-0.003250,-0.020290,0.002031
0.882360,-0.012835,-0.017050,0.000952
0.892369,-0.003258,-0.021343,-0.001178
0.902410,-0.008585,-0.022409,0.002007
0.912420,-0.003256,-0.022426,0.002021
0.922460,-0.007516,-0.021344,0.002015
0.932500,-0.004322,-0.021345,-0.000113
0.942510,-0.009657,-0.022385,-0.002269
0.952550,-0.009646,-0.021343,0.003077
0.962560,-0.003253,-0.021358,0.002026
0.972600,-0.008587,-0.021326,-0.001193
0.982610,-0.012842,-0.019181,-0.000126
0.992650,-0.000067,-0.024562,-0.000116
1.002691,-0.011775,-0.020268,0.003076
1.012700,-0.007518,-0.021339,0.000946
1.022741,-0.017107,-0.019162,-0.001206
1.032750,-0.001129,-0.022418,-0.001177
1.042791,-0.012849,-0.023468,0.003058
1.052800,-0.005393,-0.024555,0.002005
1.062841,-0.008570,-0.017069,0.002032
1.072881,-0.004319,-0.021355,0.002023
1.082891,-0.008577,-0.020278,0.003085
1.092931,-0.006456,-0.023484,0.002007
1.102941,-0.010709,-0.020271,0.003079
1.112981,-0.011776,-0.020263,0.002008
1.122991,-0.006446,-0.020285,0.003091
1.133031,-0.009649,-0.021332,0.000941
1.143071,-0.009653,-0.023473,0.001999
1.153081,-0.005387,-0.022419,0.002015
1.163121,-0.010715,-0.021329,0.000938
1.173131,-0.006453,-0.022416,0.002013
1.183171,-0.007516,-0.021344,0.002015
1.193181,-0.010715,-0.021329,0.000938
1.203222,-0.008579,-0.020273,0.002017
1.213262,-0.008583,-0.021336,0.000944
1.223272,-0.006453,-0.022416,0.002013
1.233312,-0.010718,-0.023475,0.003064
1.243322,-0.006449,-0.020275,0.000954
1.253362,-0.010700,-0.017067,0.003094
1.263372,-0.005387,-0.022419,0.002015
1.273412,-0.004326,-0.023486,0.000945
1.283452,-0.009649,-0.022411,0.003072
1.293462,-0.005389,-0.022414,0.000947
1.303502,-0.012835,-0.018128,0.003083
1.313512,-0.001123,-0.021360,0.000964
1.323552,-0.012840,-0.020264,0.003073
1.333562,-0.006452,-0.021343,0.000949
1.343602,-0.007519,-0.022412,0.002010
1.343602,-0.007519,-0.022412,0.002010
1.363652,-0.007513,-0.020277,0.002020
1.373693,-0.004323,-0.022418,0.000950
1.383702,-0.011782,-0.022399,0.001998
1.393743,-0.005379,-0.019216,0.002031
1.403753,-0.008588,-0.022399,-0.000130
1.413793,-0.010712,-0.020261,0.000943
1.423833,-0.005390,-0.023487,0.002010
1.433843,-0.010708,-0.019198,0.002016
1.443883,-0.009643,-0.020275,0.003082
1.453893,-0.005391,-0.022409,-0.000121
1.463956,-0.010712,-0.021339,0.003074
1.473966,-0.006459,-0.024552,0.002002
1.484006,-0.009637,-0.017061,0.000961
1.494047,-0.010712,-0.020261,0.000943
1.504056,-0.007519,-0.021334,-0.000122
1.514097,-0.012851,-0.024541,0.004121
1.524106,-0.007519,-0.022412,0.002010
1.534147,-0.010708,-0.019198,0.002016
1.544156,-0.009655,-0.023468,0.000931
1.554197,-0.010715,-0.022407,0.003069
1.564237,-0.010712,-0.020261,0.000943
1.574247,-0.014978,-0.021315,0.000926
1.584287,-0.011779,-0.021331,0.002003
1.594297,-0.006452,-0.022421,0.003081
1.604337,-0.012839,-0.019191,0.002010
1.614347,-0.004317,-0.021360,0.003092
1.624387,-0.010704,-0.019208,0.004152
1.634427,-0.012845,-0.021327,0.002000
1.644437,-0.005384,-0.021351,0.002021
1.654477,-0.010710,-0.020266,0.002011
1.664487,-0.004314,-0.019214,0.000965
1.674527,-0.005381,-0.020283,0.002026
1.684537,-0.006452,-0.022421,0.003081
1.694578,-0.004317,-0.020282,0.000960
1.704587,-0.007517,-0.022417,0.003078
1.714628,-0.005377,-0.020299,0.005230
1.724668,-0.005377,-0.018143,0.000968
1.734678,-0.006449,-0.021353,0.003086
1.744718,-0.005381,-0.020283,0.002026
1.754728,-0.005378,-0.020294,0.004162
1.764768,-0.009641,-0.020280,0.004150
1.774778,-0.011769,-0.018132,0.003086
1.784818,-0.005384,-0.021351,0.002021
1.794858,-0.011772,-0.019200,0.003081
1.804868,-0.004315,-0.021365,0.004160
1.814908,-0.008577,-0.021356,0.005216
1.824918,-0.008579,-0.020273,0.002017
1.834958,-0.006454,-0.023489,0.003076
1.844968,-0.005381,-0.020283,0.002026
1.855008,-0.007508,-0.020292,0.005224
1.865049,-0.008582,-0.021341,0.002012
1.875058,-0.007513,-0.021355,0.004151
1.885099,-0.012842,-0.020259,0.002005
1.895109,-0.002190,-0.023508,0.004156
1.905149,-0.009637,-0.018139,0.003092
1.915159,-0.008579,-0.020273,0.002017
1.925199,-0.011776,-0.020263,0.002008
1.935239,-0.009644,-0.021348,0.004145
1.945249,-0.005381,-0.021361,0.004157
1.955289,-0.010704,-0.019208,0.004152
1.965299,-0.011776,-0.020263,0.002008
1.975339,-0.006453,-0.022416,0.002013
1.985349,-0.010713,-0.021334,0.002006
1.995389,-0.005387,-0.022419,0.002015
2.005430,-0.008579,-0.020273,0.002017
2.015439,-0.008589,-0.023472,0.000933
2.025480,-0.004323,-0.023496,0.003082
2.035489,-0.004320,-0.021350,0.000955
2.045530,-0.009643,-0.020275,0.003082
2.055539,-0.005395,-0.024550,0.000937
2.065580,-0.005390,-0.023487,0.002010
2.075620,-0.011780,-0.022404,0.003066
2.085630,-0.004314,-0.020292,0.003097
2.095670,-0.008579,-0.021351,0.004148
2.105680,-0.007526,-0.025621,0.003063
2.115720,-0.004326,-0.024564,0.003076
2.125730,-0.003260,-0.024567,0.003079
2.135770,-0.005383,-0.021356,0.003089
2.145810,-0.006442,-0.020295,0.005227
2.155820,-0.003259,-0.023494,0.002016
2.165860,-0.009647,-0.022416,0.004140
2.175870,-0.000058,-0.023515,0.004161
2.185911,-0.004311,-0.020302,0.005233
2.195920,-0.007511,-0.020282,0.003088
2.205961,0.001009,-0.022445,0.003101
2.216001,-0.009635,-0.019222,0.006292
2.226011,-0.003254,-0.022431,0.003090
2.236051,-0.008574,-0.019210,0.003090
2.246061,-0.006448,-0.022431,0.005217
2.256101,-0.007514,-0.021349,0.003083
2.266111,-0.009639,-0.019212,0.004155
2.276151,-0.003248,-0.020295,0.003100
2.286191,-0.014966,-0.018121,0.003078
2.296201,-0.004319,-0.021355,0.002023
2.306241,-0.014970,-0.020262,0.004136
2.316251,-0.008579,-0.020273,0.002017
2.326291,-0.005379,-0.019216,0.002031
2.336301,-0.012842,-0.020259,0.002005
2.346341,-0.005390,-0.023487,0.002010
2.356382,-0.012845,-0.022405,0.004131
2.366391,-0.002190,-0.022430,0.002024
2.376432,-0.008577,-0.020278,0.003085
2.386442,-0.004329,-0.024554,0.000940
2.396482,-0.008583,-0.022414,0.003075
2.406492,-0.007526,-0.024543,0.000931
2.416532,-0.001125,-0.023506,0.003090
2.426572,-0.009644,-0.021348,0.004145
2.436582,-0.006461,-0.024547,0.000934
2.446622,-0.007514,-0.021349,0.003083
2.456632,-0.009646,-0.021343,0.003077
2.466703,-0.004318,-0.022433,0.004155
2.476713,-0.012842,-0.020259,0.002005
2.486753,-0.003263,-0.024557,0.000943
2.496794,-0.016035,-0.019186,0.003070
2.506803,-0.003256,-0.021348,-0.000110
2.516844,-0.013895,-0.015989,0.003091
2.526853,-0.013911,-0.021324,0.001997
2.536894,-0.007518,-0.020261,-0.001185
2.546903,-0.016032,-0.017040,0.000943
2.556944,-0.003252,-0.019207,-0.001168
2.566984,-0.011769,-0.017054,0.000955
2.576994,-0.004323,-0.021340,-0.001181
2.587034,-0.006450,-0.022426,0.004149
2.597044,-0.003259,-0.023494,0.002016
2.607084,0.001010,-0.021372,0.002038
2.617094,-0.006450,-0.021348,0.002018
2.627134,-0.001135,-0.024554,-0.001188
2.637174,-0.007515,-0.020271,0.000952
2.647184,-0.002199,-0.024555,-0.000122
2.657224,-0.004323,-0.022418,0.000950
2.667234,-0.007531,-0.025606,-0.000142
2.677275,-0.003268,-0.024542,-0.002262
2.687284,-0.016047,-0.021302,-0.001213
2.697325,-0.006464,-0.023458,-0.003333
2.707365,-0.014983,-0.021300,-0.002279
2.717375,-0.011802,-0.025567,-0.005495
2.727415,-0.009657,-0.022385,-0.002269
2.737425,-0.013920,-0.022371,-0.002281
2.747465,-0.007530,-0.022377,-0.005468
2.757475,-0.014977,-0.018086,-0.004400
2.767515,-0.006473,-0.025584,-0.005480
2.777555,-0.004335,-0.024533,-0.003333
2.787565,-0.004334,-0.023460,-0.004396
2.797605,-0.002201,-0.022394,-0.005453
2.807615,-0.008591,-0.021311,-0.004397
2.817655,0.003112,-0.027746,-0.006532
2.827665,-0.010730,-0.023434,-0.005482
2.837705,-0.005409,-0.026661,-0.004414
2.847746,-0.000075,-0.024537,-0.005457
2.857755,-0.012860,-0.023433,-0.004419
2.867796,-0.002223,-0.028787,-0.008688
2.877806,-0.017119,-0.022356,-0.003358
2.887846,-0.007534,-0.024518,-0.004410
2.897856,-0.008599,-0.022363,-0.007607
2.907896,-0.013932,-0.024487,-0.006564
2.917936,-0.006470,-0.023438,-0.007606
2.927946,-0.013916,-0.020230,-0.003339
2.937986,-0.007535,-0.023440,-0.006541
2.947996,-0.005394,-0.020243,-0.006520
2.958036,-0.007530,-0.022377,-0.005468
2.968046,0.003135,-0.020281,-0.004360
2.968046,0.003135,-0.020281,-0.004360
2.988127,0.002062,-0.022408,-0.005441
2.998136,-0.005381,-0.015976,-0.005432
3.008177,0.000981,-0.026666,-0.007601
3.008177,0.000981,-0.026666,-0.007601
3.018186,-0.005396,-0.021316,-0.005457
3.038236,-0.006453,-0.018109,-0.005445
3.048277,-0.010716,-0.017017,-0.007588
3.058317,-0.003274,-0.024522,-0.006534
3.068327,-0.009656,-0.020234,-0.005463
3.068327,-0.009656,-0.020234,-0.005463
3.078367,-0.009656,-0.020234,-0.005463
3.088377,-0.006457,-0.019172,-0.006518
3.108427,-0.000070,-0.022401,-0.005447
3.118467,-0.008596,-0.022373,-0.005471
3.118467,-0.008596,-0.022373,-0.005471
3.128507,-0.002194,-0.020263,-0.004375
3.138517,-0.004326,-0.019178,-0.006512
3.148557,-0.002201,-0.022394,-0.005453
3.158567,-0.000065,-0.021338,-0.004374
3.178617,-0.002192,-0.020269,-0.003307
3.188658,-0.005391,-0.019175,-0.006515
3.188658,-0.005391,-0.019175,-0.006515
3.198698,-0.003267,-0.023469,-0.003325
3.208708,-0.001138,-0.023466,-0.005455
3.218748,-0.002190,-0.020274,-0.002238
3.228758,-0.003255,-0.017041,-0.007567
3.238798,-0.006463,-0.021307,-0.006528
3.248808,-0.001132,-0.022408,-0.003314
3.268888,-0.001130,-0.019184,-0.007571
3.268888,-0.001130,-0.019184,-0.007571
3.278898,-0.003254,-0.017046,-0.006499
3.288938,-0.003264,-0.021323,-0.005451
3.298948,-0.008596,-0.021295,-0.007602
3.308988,-0.007514,-0.014886,-0.008637
3.318998,-0.002194,-0.017029,-0.010769
3.339079,-0.008596,-0.020217,-0.009733
3.339079,-0.008596,-0.020217,-0.009733
3.349089,-0.005389,-0.017029,-0.008641
3.359129,0.004197,-0.017040,-0.012888
3.369139,-0.009660,-0.021297,-0.006537
3.389189,-0.005396,-0.020238,-0.007588
3.399229,0.002059,-0.018091,-0.015035
3.399229,0.002059,-0.018091,-0.015035
3.409269,-0.005401,-0.023452,-0.005467
3.419279,-0.005418,-0.027708,-0.008692
3.439329,0.000985,-0.022369,-0.012922
3.439329,0.000985,-0.022369,-0.012922
3.449369,-0.011790,-0.022373,-0.003343
3.459379,0.003103,-0.029872,-0.008678
3.479483,0.002050,-0.025602,-0.007593
3.479483,0.002050,-0.025602,-0.007593
3.489492,-0.012868,-0.024485,-0.007629
3.499533,0.006325,-0.020266,-0.009692
3.509542,-0.010735,-0.023419,-0.008686
3.519583,-0.006475,-0.025579,-0.006548
3.529592,0.000987,-0.024530,-0.007591
3.549643,-0.000068,-0.022406,-0.004379
3.549643,-0.000068,-0.022406,-0.004379
3.559683,-0.008609,-0.025562,-0.008690
3.569723,-0.003254,-0.017046,-0.006499
3.579733,-0.003247,-0.013837,-0.007552
3.589773,0.000984,-0.024520,-0.009727
3.599783,-0.010725,-0.019143,-0.009734
3.619833,0.008449,-0.022404,-0.010765
3.619833,0.008449,-0.022404,-0.010765
3.629873,-0.010728,-0.020210,-0.009739
3.639914,-0.007545,-0.027717,-0.005493
3.649923,-0.000075,-0.020230,-0.012914
3.659964,0.000995,-0.019170,-0.011838
3.669973,-0.016067,-0.024470,-0.008706
3.690023,-0.008591,-0.017003,-0.011855
3.690023,-0.008591,-0.017003,-0.011855
3.700064,-0.012863,-0.021271,-0.009750
3.710104,-0.000080,-0.020215,-0.016119
3.720114,-0.014981,-0.015920,-0.010799
3.730154,-0.008619,-0.025532,-0.015100
3.740164,-0.000066,-0.015948,-0.015031
3.760214,-0.003287,-0.024481,-0.015080
3.760214,-0.003287,-0.024481,-0.015080
3.770254,0.002069,-0.017043,-0.010757
3.780294,-0.009661,-0.020219,-0.008668
3.790304,-0.003283,-0.022340,-0.016138
3.800344,-0.003253,-0.014895,-0.009693
3.810354,0.007374,-0.024526,-0.012914
3.830404,-0.006464,-0.023458,-0.003333
3.830404,-0.006464,-0.023458,-0.003333
3.840445,0.005252,-0.019164,-0.016099
3.850485,-0.001127,-0.017038,-0.009698
3.860495,-0.001149,-0.025586,-0.008670
3.870535,0.006329,-0.017047,-0.012882
3.880545,-0.009660,-0.022375,-0.004405
3.890585,0.006310,-0.024527,-0.011849
3.900595,-0.004322,-0.015960,-0.009701
3.910635,-0.005405,-0.022364,-0.009735
3.920675,-0.001133,-0.018096,-0.011839
3.930685,-0.005394,-0.019165,-0.008651
3.940725,-0.001146,-0.022362,-0.012928
3.950735,-0.005395,-0.018087,-0.010783
3.960775,-0.004338,-0.021294,-0.010795
3.970785,-0.002208,-0.020218,-0.013989
3.980825,-0.013923,-0.018054,-0.011874
3.990866,-0.002213,-0.021281,-0.015062
4.000875,-0.010729,-0.018054,-0.014002
4.010916,-0.011808,-0.022318,-0.015093
4.020925,-0.010730,-0.016971,-0.017201
4.030966,-0.007528,-0.018075,-0.011857
4.040976,-0.011803,-0.021255,-0.014020
4.051016,-0.008604,-0.020192,-0.015074
4.061056,-0.013936,-0.022321,-0.012963
4.071066,0.002048,-0.022363,-0.015055
4.081106,-0.004335,-0.021304,-0.008658
4.091116,0.000982,-0.024515,-0.010795
4.101156,-0.002210,-0.023442,-0.009731
4.111166,-0.005405,-0.022364,-0.009735
4.121206,0.008443,-0.023461,-0.012906
4.131247,-0.004334,-0.022382,-0.006527
4.141256,0.004185,-0.020234,-0.015039
4.151297,-0.001140,-0.023461,-0.006523
4.161306,-0.002229,-0.027693,-0.014024
4.171347,0.003118,-0.022381,-0.011848
4.181356,-0.008607,-0.023416,-0.010817
4.191397,-0.004359,-0.025535,-0.017224
4.201437,-0.014986,-0.016983,-0.011872
4.211447,-0.021410,-0.024407,-0.018334
4.221487,-0.007554,-0.023379,-0.019359
4.231497,-0.020337,-0.022280,-0.017253
4.251547,-0.020332,-0.023373,-0.011917
4.251547,-0.020332,-0.023373,-0.011917
4.261587,-0.003302,-0.027665,-0.019368
4.271627,-0.012866,-0.019105,-0.016149
4.281637,-0.006507,-0.030863,-0.018324
4.291677,-0.003277,-0.019126,-0.018259
4.301687,-0.005429,-0.028751,-0.014038
4.321737,0.004166,-0.027714,-0.014006
4.321737,0.004166,-0.027714,-0.014006
4.331778,-0.011829,-0.026559,-0.021523
4.341818,0.002024,-0.028750,-0.019358
4.351828,-0.012887,-0.026581,-0.016185
4.361868,-0.004375,-0.030870,-0.018318
4.371878,-0.013935,-0.021248,-0.014026
4.391928,-0.008619,-0.024454,-0.017231
4.391928,-0.008619,-0.024454,-0.017231
4.401968,-0.007553,-0.025535,-0.015097
4.412008,-0.002227,-0.026620,-0.015087
4.422018,-0.001156,-0.027717,-0.009748
4.432058,-0.006484,-0.026627,-0.010826
4.442068,-0.001149,-0.024508,-0.010801
4.462130,0.005243,-0.025597,-0.010789
4.462130,0.005243,-0.025597,-0.010789
4.472170,-0.007541,-0.024498,-0.008682
4.482211,0.008444,-0.023466,-0.011838
4.492220,-0.004351,-0.024483,-0.014015
4.502261,-0.011797,-0.020197,-0.011878
4.512270,-0.001145,-0.021289,-0.013991
4.532321,-0.009673,-0.020179,-0.017214
4.532321,-0.009673,-0.020179,-0.017214
4.542361,-0.002213,-0.021281,-0.015062
4.552401,-0.012875,-0.023387,-0.014033
4.562411,-0.003288,-0.022325,-0.019343
4.572451,-0.013926,-0.018044,-0.014011
4.582461,0.002027,-0.027682,-0.019353
4.602511,-0.009690,-0.025513,-0.018307
4.602511,-0.009690,-0.025513,-0.018307
4.612551,-0.001168,-0.024448,-0.023620
4.622592,-0.011806,-0.022323,-0.014025
4.632601,-0.002241,-0.027653,-0.022569
4.642642,-0.005428,-0.026600,-0.017232
4.652651,-0.007554,-0.023379,-0.019359
4.672701,-0.012882,-0.025518,-0.015111
4.672701,-0.012882,-0.025518,-0.015111
4.682742,0.005222,-0.027687,-0.020413
4.692782,-0.005417,-0.025557,-0.011886
4.702792,0.006279,-0.030895,-0.020425
4.712832,-0.010756,-0.028739,-0.012984
4.722842,-0.005441,-0.031945,-0.016189
4.742892,-0.017149,-0.030879,-0.007671
4.742892,-0.017149,-0.030879,-0.007671
4.752932,-0.007590,-0.037267,-0.018357
4.762972,-0.005420,-0.027703,-0.009760
4.772982,-0.010762,-0.029797,-0.015126
4.783022,-0.002245,-0.034106,-0.012986
4.793032,-0.012888,-0.029810,-0.010859
4.813082,0.005225,-0.030926,-0.012950
4.813082,0.005225,-0.030926,-0.012950
4.823123,-0.003290,-0.027705,-0.010822
4.833163,0.012685,-0.029873,-0.015061
4.843173,0.004180,-0.025604,-0.008655
4.853213,0.008421,-0.030932,-0.014010
4.863223,-0.002221,-0.024485,-0.015077
4.883273,0.002040,-0.024493,-0.016133
4.883273,0.002040,-0.024493,-0.016133
4.893313,-0.009675,-0.021251,-0.016150
4.903323,-0.005414,-0.022333,-0.016144
4.913363,-0.008601,-0.015895,-0.020395
4.923403,-0.016060,-0.019105,-0.014022
4.933413,-0.001146,-0.018055,-0.020385
4.953463,-0.000083,-0.021283,-0.016124
4.953463,-0.000083,-0.021283,-0.016124
4.963503,-0.001131,-0.014872,-0.016097
4.973513,-0.005391,-0.015946,-0.011841
4.983553,0.007381,-0.020239,-0.016099
4.993594,0.002072,-0.015975,-0.010752
5.003603,0.005256,-0.020252,-0.011832
5.033694,0.015895,-0.028845,-0.008638
5.043704,0.004179,-0.027755,-0.005461
5.053744,0.008441,-0.027763,-0.006517
5.063784,0.013770,-0.028859,-0.004371
5.073794,0.000988,-0.028843,0.000935
5.083834,0.008426,-0.033103,-0.006543
5.093844,-0.005405,-0.027749,-0.000146
5.103884,-0.016076,-0.028752,-0.006590
5.113894,-0.002220,-0.028797,-0.006552
5.123934,-0.018195,-0.026629,-0.002313
5.133975,-0.008618,-0.028766,-0.008706
5.143984,-0.025648,-0.024474,-0.001255
5.164034,-0.009671,-0.023418,-0.009751
5.164034,-0.009671,-0.023418,-0.009751
5.174075,-0.014994,-0.023421,-0.005493
5.184084,-0.005424,-0.029844,-0.008702
5.194125,-0.016061,-0.023412,-0.006564
5.204165,-0.012880,-0.026601,-0.011912
5.214175,-0.008605,-0.023421,-0.009749
5.224215,-0.012855,-0.019141,-0.008672
5.234225,-0.004338,-0.020216,-0.012926
5.244265,-0.013924,-0.019127,-0.010811
5.254275,-0.002206,-0.021301,-0.010789
5.264315,-0.009664,-0.020209,-0.010804
5.274355,-0.010728,-0.020210,-0.009739
5.284365,-0.003270,-0.018074,-0.015050
5.304415,-0.001138,-0.019159,-0.012912
5.304415,-0.001138,-0.019159,-0.012912
5.314456,-0.006468,-0.021292,-0.009733
5.324465,-0.008601,-0.022358,-0.008675
5.334506,-0.009661,-0.019141,-0.010799
5.344546,-0.005390,-0.018102,-0.007578
5.354556,-0.021385,-0.019103,-0.010832
5.374606,-0.016045,-0.018078,-0.005471
5.374606,-0.016045,-0.018078,-0.005471
5.384646,-0.001149,-0.026664,-0.006539
5.394656,-0.013913,-0.018084,-0.005465
5.404696,-0.000086,-0.026658,-0.008672
5.414736,-0.004345,-0.028810,-0.002285
5.424746,-0.002232,-0.034147,-0.004441
5.444796,-0.006474,-0.027735,-0.002286
5.444796,-0.006474,-0.027735,-0.002286
5.454836,-0.011814,-0.030917,-0.003384
5.464878,-0.015005,-0.029848,-0.001251
5.474918,-0.011809,-0.028776,-0.004442
5.484959,-0.007538,-0.028815,0.000911
5.494968,-0.018194,-0.025556,-0.003376
5.515019,-0.008597,-0.024525,-0.002276
5.515019,-0.008597,-0.024525,-0.002276
5.525059,-0.010727,-0.022367,-0.005477
5.535069,-0.002208,-0.025603,-0.004400
5.545109,-0.009639,-0.017056,-0.000107
5.555149,-0.006444,-0.014905,-0.005429
5.565159,-0.002181,-0.018148,-0.000092
5.585209,0.005254,-0.024554,-0.005443
5.595249,-0.003243,-0.017082,0.000978
5.605259,-0.006470,-0.024516,-0.005475
5.615299,0.005266,-0.022439,-0.001160
5.625340,-0.011786,-0.021310,-0.002270
5.635349,0.004185,-0.024541,-0.007582
5.655399,-0.001137,-0.022393,-0.006518
5.665440,-0.017108,-0.020235,-0.000143
5.675449,-0.001140,-0.023461,-0.006523
5.685490,-0.013919,-0.020220,-0.005475
5.695530,-0.012850,-0.020234,-0.003336
5.705540,-0.007526,-0.021314,-0.004394
5.715580,-0.011781,-0.020247,-0.001197
5.725590,-0.005407,-0.025588,-0.005477
5.735630,-0.008596,-0.023452,-0.003339
5.745640,-0.012851,-0.022385,-0.000141
5.755680,0.004194,-0.022415,-0.005436
5.765720,-0.011780,-0.022404,0.003066
5.775730,-0.000078,-0.026683,-0.003331
5.795780,-0.011800,-0.026650,-0.002295
5.795780,-0.011800,-0.026650,-0.002295
5.805821,-0.007538,-0.024508,-0.006546
5.815830,-0.019238,-0.017004,-0.004406
5.825871,-0.021380,-0.020196,-0.005496
5.835911,-0.016052,-0.020208,-0.006549
5.845921,-0.011785,-0.022388,-0.000138
5.865971,-0.008588,-0.021321,-0.002261
5.865971,-0.008588,-0.021321,-0.002261
5.876011,0.004188,-0.026707,-0.001183
5.886021,-0.009648,-0.019181,-0.002254
5.896061,0.002052,-0.027763,-0.002262
5.906101,-0.002193,-0.024576,0.004151
5.916111,-0.001129,-0.022418,-0.001177
5.936161,-0.002205,-0.025613,-0.002264
5.936161,-0.002205,-0.025613,-0.002264
5.946201,-0.011773,-0.019195,0.002013
5.956211,-0.006465,-0.024531,-0.002270
5.966251,-0.016054,-0.025588,0.001971
5.976292,-0.008585,-0.022409,0.002007
5.986302,-0.010722,-0.024538,0.001991
6.006352,-0.006462,-0.024542,-0.000134
6.016392,-0.001120,-0.020292,0.000969
6.026402,-0.001122,-0.023516,0.005227
6.036442,-0.002202,-0.026701,0.002004
6.046482,-0.011779,-0.023487,0.006266
6.056492,0.010573,-0.029926,-0.002249
6.086582,-0.007509,-0.019214,0.003093
6.096592,0.000993,-0.023473,-0.005449
6.106632,-0.008572,-0.015986,-0.001168
6.116673,-0.003253,-0.019202,-0.002236
6.126682,-0.019241,-0.016994,-0.006543
6.136723,-0.004301,-0.014947,0.002054
6.146732,-0.008577,-0.013815,-0.008635
6.156773,-0.005383,-0.020278,0.000957
6.166782,-0.009644,-0.014884,-0.007575
6.176823,-0.000044,-0.016019,-0.000076
6.186863,-0.007523,-0.020246,-0.004389
6.196873,-0.001138,-0.025622,-0.001193
6.206913,-0.004314,-0.020292,0.003097
6.216923,-0.005412,-0.026651,-0.006550
6.226963,-0.005389,-0.023492,0.003079
6.236973,-0.013938,-0.028779,-0.002311
6.247013,-0.008603,-0.027738,-0.000155
6.257023,-0.010734,-0.026653,-0.002292
6.267063,-0.010727,-0.025601,0.000917
6.277104,-0.004353,-0.032019,-0.001232
6.287113,-0.009665,-0.028823,0.004110
6.297154,-0.007549,-0.030936,-0.002304
6.307163,0.000993,-0.029936,0.006270
6.317204,-0.008596,-0.026681,0.001986
6.327213,-0.000088,-0.030960,-0.002283
6.337254,-0.002186,-0.020289,0.000966
6.357304,-0.014977,-0.021320,0.001994
6.367344,-0.004337,-0.024528,-0.004401
6.377354,-0.012832,-0.014904,-0.001174
6.387394,-0.011783,-0.019164,-0.004396
6.397404,-0.014971,-0.017028,-0.002258
6.407444,-0.006446,-0.017051,-0.003303
6.417484,-0.013903,-0.014886,-0.004382
6.427494,-0.006437,-0.014925,-0.001157
6.437534,-0.012833,-0.012748,-0.005437
6.447544,-0.004319,-0.019199,-0.002239
6.457584,-0.006449,-0.019197,-0.001177
6.467633,-0.011776,-0.019185,-0.000123
6.477674,-0.000062,-0.020270,-0.004369
6.487714,-0.007503,-0.017078,0.003103
6.497724,-0.009653,-0.020244,-0.003327
6.507764,-0.001116,-0.021380,0.005237
6.517774,-0.004317,-0.021360,0.003092
6.527814,-0.004330,-0.025627,0.002003
6.537824,-0.004316,-0.020287,0.002029
6.547864,-0.004332,-0.026700,0.003066
6.557904,-0.011780,-0.022404,0.003066
6.567914,-0.010721,-0.023465,0.000928
6.577954,-0.003259,-0.023494,0.002016
6.587964,-0.021373,-0.021294,0.000908
6.598004,-0.011798,-0.027733,0.000904
6.608014,-0.014982,-0.023456,0.001984
6.618054,-0.007513,-0.019198,-0.000112
6.628095,-0.003256,-0.020270,-0.002241
6.638104,-0.011763,-0.015996,0.003096
6.648145,0.002064,-0.019184,-0.009699
6.658154,-0.009630,-0.016008,0.004171
6.668195,-0.009646,-0.015957,-0.006511
6.678205,-0.007505,-0.013839,-0.004359
6.688245,-0.018154,-0.010600,-0.004373
6.708295,-0.011754,-0.011714,0.000980
6.718335,-0.009651,-0.020249,-0.002259
6.728345,-0.006452,-0.019187,-0.003313
6.728345,-0.006452,-0.019187,-0.003313
6.748395,-0.009655,-0.022390,-0.001201
6.748395,-0.009655,-0.022390,-0.001201
6.768476,-0.008580,-0.023502,0.007343
6.778485,-0.001160,-0.032014,-0.004428
6.778485,-0.001160,-0.032014,-0.004428
6.798535,0.003127,-0.025641,-0.000113
6.808576,0.002066,-0.026730,0.005220
6.818585,0.001001,-0.026727,0.005217
6.818585,0.001001,-0.026727,0.005217
6.828626,0.007405,-0.022471,0.004187
6.838666,-0.010722,-0.024538,0.001991
6.858716,-0.002177,-0.017085,0.000981
6.858716,-0.002177,-0.017085,0.000981
6.878766,-0.010727,-0.023445,-0.003345
6.878766,-0.010727,-0.023445,-0.003345
6.888776,-0.009631,-0.017081,0.005234
6.908856,-0.008570,-0.017069,0.002032
6.918866,-0.011781,-0.020247,-0.001197
6.918866,-0.011781,-0.020247,-0.001197
6.928906,0.002079,-0.019230,-0.000085
6.938916,-0.003247,-0.018144,-0.000095
6.948956,-0.011780,-0.019174,-0.002260
6.958966,0.014858,-0.021392,-0.003265
6.969007,-0.004321,-0.023501,0.004150
6.979047,-0.013917,-0.020225,-0.004407
7.009107,-0.012878,-0.028762,-0.006581
7.009107,-0.012878,-0.028762,-0.006581
7.019147,-0.007522,-0.022402,-0.000127
7.029157,-0.018184,-0.020201,-0.006555
7.039197,-0.005401,-0.024530,-0.003336
7.049237,-0.021370,-0.020226,0.000913
7.069287,-0.010729,-0.024518,-0.002282
7.079297,-0.017097,-0.015964,-0.000123
7.089337,0.006336,-0.020301,-0.002215
7.099347,-0.004313,-0.019219,0.002034
7.109387,-0.006449,-0.019197,-0.001177
7.119428,0.003149,-0.018170,0.000991
7.129437,0.002085,-0.019250,0.004188
7.139478,-0.002180,-0.018153,0.000976
7.149487,0.002075,-0.023527,0.005236
7.159528,-0.006443,-0.019217,0.003096
7.169538,-0.011775,-0.018112,-0.001186
7.179578,-0.011765,-0.015991,0.002028
7.189618,-0.008594,-0.023457,-0.002271
7.229718,-0.006465,-0.026688,0.001992
7.229718,-0.006465,-0.026688,0.001992
7.239728,-0.010726,-0.022372,-0.004408
7.249768,-0.004332,-0.025621,0.000935
7.259809,-0.013922,-0.022366,-0.003349
7.269818,-0.004326,-0.022408,-0.001186
7.279859,-0.014983,-0.022378,-0.000147
7.289868,-0.001145,-0.026674,-0.004402
7.299909,-0.014974,-0.018096,-0.002263
7.309918,0.007386,-0.026717,-0.001174
7.319959,-0.014978,-0.020237,-0.001205
7.329999,0.007383,-0.026707,-0.003311
7.350049,0.005258,-0.024570,-0.002238
7.360059,0.004198,-0.022430,-0.002231
7.370099,-0.009658,-0.024536,0.000925
7.380109,0.007393,-0.023509,-0.002227
7.390149,-0.005367,-0.016022,0.004182
7.400189,-0.000071,-0.024552,-0.002253
7.420239,-0.009638,-0.020290,0.006287
7.420239,-0.009638,-0.020290,0.006287
7.430249,-0.005391,-0.022409,-0.000121
7.440289,-0.007513,-0.020277,0.002020
7.450299,-0.010710,-0.021344,0.004142
7.460340,0.004196,-0.024576,-0.000105
7.470387,-0.009626,-0.018174,0.010570
7.490437,-0.000037,-0.018195,0.008460
7.490437,-0.000037,-0.018195,0.008460
7.500447,-0.001130,-0.023491,-0.000114
7.510487,-0.002187,-0.021362,0.002029
7.520497,-0.004318,-0.022433,0.004155
7.530537,-0.003254,-0.021353,0.000958
7.540577,-0.005380,-0.019210,0.000962
7.560627,-0.007535,-0.026669,-0.001215
7.560627,-0.007535,-0.026669,-0.001215
7.570637,-0.017107,-0.019162,-0.001206
7.580677,-0.011790,-0.022373,-0.003343
7.590687,-0.016050,-0.022369,-0.001218
7.600727,-0.013926,-0.025585,-0.000160
7.610737,-0.011787,-0.020227,-0.005469
7.630818,-0.007524,-0.020241,-0.005458
7.640827,-0.005392,-0.023482,0.000942
7.650868,-0.003262,-0.022406,-0.002251
7.660878,-0.000056,-0.019213,-0.002227
7.670918,-0.001121,-0.020287,-0.000099
7.680928,0.004202,-0.023518,0.002037
7.701008,-0.003258,-0.021343,-0.001178
7.701008,-0.003258,-0.021343,-0.001178
7.711018,-0.007519,-0.021334,-0.000122
7.721058,-0.008585,-0.021331,-0.000125
7.731068,-0.002202,-0.023467,-0.004390
7.741108,-0.019237,-0.020238,0.001988
7.751118,-0.007523,-0.020246,-0.004389
7.771199,-0.006468,-0.026677,-0.000144
7.781208,-0.008581,-0.019190,-0.001183
7.791249,-0.003263,-0.023479,-0.001188
7.801258,-0.018171,-0.019164,-0.000141
7.811299,-0.006455,-0.020255,-0.003318
7.821308,-0.004322,-0.020267,-0.002244
7.841389,-0.009657,-0.021307,-0.004400
7.851399,0.003140,-0.021374,0.000976
7.861439,-0.017107,-0.020240,0.000925
7.871449,0.009511,-0.028860,-0.001178
7.881489,-0.006458,-0.022401,-0.001192
7.891499,0.001013,-0.019226,-0.000088
7.911579,-0.012849,-0.023468,0.003058
7.911579,-0.012849,-0.023468,0.003058
7.921589,-0.008625,-0.031975,-0.007653
7.931629,-0.003242,-0.018160,0.003110
7.941639,-0.007533,-0.023445,-0.005473
7.951680,-0.008601,-0.025587,-0.003349
7.961689,-0.008578,-0.018122,-0.001178
7.981770,-0.013924,-0.025590,0.000909
7.991780,-0.002202,-0.020238,-0.009716
8.001820,-0.006442,-0.017066,-0.000099
8.011830,-0.006449,-0.021353,0.003086
8.021870,0.010594,-0.023529,-0.000082
8.031880,-0.013908,-0.020256,0.002002
8.051960,-0.007521,-0.022407,0.000941
8.061970,0.003134,-0.022432,-0.001166
8.072010,-0.012848,-0.020239,-0.002268
8.082020,0.004212,-0.020320,0.003120
8.092060,-0.014980,-0.019154,-0.004405
8.102070,0.002063,-0.024564,-0.001179
8.122151,0.004218,-0.017106,0.000999
8.122151,0.004218,-0.017106,0.000999
8.132160,-0.000064,-0.023494,-0.000111
8.142201,0.005244,-0.029909,-0.002263
8.152211,-0.007509,-0.018136,0.000962
8.162251,-0.012857,-0.023443,-0.002283
8.172261,0.000979,-0.029890,-0.003343
8.192341,-0.014981,-0.021305,-0.001210
8.202351,-0.016044,-0.022390,0.003054
8.212391,-0.005401,-0.024530,-0.003336
8.222401,-0.018181,-0.023441,0.000907
8.232441,0.003116,-0.026683,-0.005459
8.242451,-0.016038,-0.018098,-0.001198
8.262532,-0.006470,-0.025594,-0.003344
8.262532,-0.006470,-0.025594,-0.003344
8.272541,0.003140,-0.019218,-0.003287
8.282582,-0.009641,-0.017051,-0.001176
8.292591,0.009510,-0.027777,-0.004378
8.302632,-0.006440,-0.018149,0.003101
8.312641,-0.007521,-0.020251,-0.003321
8.352772,-0.005396,-0.021316,-0.005457
8.362782,-0.019233,-0.017019,-0.001202
8.372822,-0.007533,-0.024523,-0.003341
8.382832,-0.010733,-0.026659,-0.001224
8.392872,-0.023517,-0.022325,-0.005512
8.402912,0.005246,-0.024529,-0.010784
8.412922,-0.013899,-0.019208,0.006280
8.422962,0.010568,-0.029911,-0.005453
8.432972,0.013788,-0.025685,0.002053
8.443013,-0.009622,-0.020340,0.016969
8.453022,0.037202,-0.033197,-0.006463
8.483140,0.009518,-0.024573,-0.004363
8.483140,0.025533,-0.025789,0.015972
8.493180,0.005290,-0.017129,0.005275
8.503190,0.012714,-0.025657,-0.003291
8.513230,-0.010709,-0.020271,0.003079
8.523240,0.004200,-0.020279,-0.005425
8.543320,-0.021365,-0.015934,-0.003339
8.553330,-0.023502,-0.020220,0.000908
8.563370,-0.039490,-0.020163,-0.000205
8.573380,-0.004337,-0.023450,-0.006532
8.583420,-0.018168,-0.019174,0.001996
8.593430,-0.016056,-0.024505,-0.001229
8.603470,0.001012,-0.021377,0.003106
8.613511,0.013791,-0.025696,0.004189
8.623520,0.005276,-0.024625,0.009512
8.633561,0.018070,-0.021448,0.006358
8.643571,0.018070,-0.021448,0.006358
8.653611,0.007388,-0.029957,0.006288
8.663621,-0.008588,-0.027784,0.009459
8.683701,-0.023506,-0.023438,0.004097
8.693711,-0.012838,-0.023503,0.010535
8.703751,-0.012872,-0.028782,-0.002308
8.713761,-0.022446,-0.025578,0.004090
8.723801,-0.036302,-0.023377,-0.000211
8.733811,-0.024593,-0.027676,-0.002335
8.753892,-0.049064,-0.011573,-0.003395
8.763901,-0.036320,-0.025472,-0.008767
8.773942,-0.053326,-0.014793,0.002987
8.783951,-0.033095,-0.015876,-0.007644
8.793992,-0.034140,-0.013782,0.001977
8.804001,-0.004325,-0.020257,-0.004381
8.814042,-0.004308,-0.013849,-0.004350
8.824082,-0.018151,-0.015995,0.007352
8.834092,0.014855,-0.028923,0.008450
8.844132,0.020220,-0.018281,0.012788
8.854142,0.027675,-0.015056,0.003210
8.864182,0.009554,-0.019299,0.009549
8.874192,0.008473,-0.023558,0.007389
8.894272,0.006345,-0.023561,0.009520
8.904282,-0.010690,-0.013869,0.004178
8.914322,-0.008584,-0.024565,0.006269
8.924332,-0.025645,-0.024484,0.000882
8.934373,-0.021372,-0.020221,-0.000155
8.944382,-0.023503,-0.020214,-0.000161
8.954423,-0.013937,-0.026628,-0.005506
8.964463,-0.024571,-0.023435,0.004094
8.974473,-0.024570,-0.022362,0.003031
8.984513,0.004199,-0.025664,0.004163
8.994523,-0.026705,-0.027730,0.010477
9.004563,0.015882,-0.035268,-0.005464
9.014573,-0.004300,-0.019259,0.010579
9.034653,0.007375,-0.035301,0.007331
9.044663,-0.006440,-0.017071,0.000970
9.054703,-0.001117,-0.018146,-0.001157
9.064713,0.009549,-0.020362,0.008476
9.074753,0.012755,-0.016091,0.006368
9.084763,0.005286,-0.019270,0.006333
9.094803,0.012754,-0.017164,0.007432
9.104813,0.021284,-0.012894,0.002134
9.114854,0.011734,-0.004381,0.014967
9.124894,0.014903,-0.009685,0.005336
9.134904,0.002118,-0.008581,0.006375
9.144944,-0.003206,-0.004271,0.002107
9.154954,0.002116,-0.006420,0.001044
9.175004,-0.019186,0.001145,-0.003252
9.185044,-0.019171,0.005407,-0.001096
9.195084,-0.015977,0.006485,-0.005355
9.205094,-0.013836,0.007526,-0.001071
9.215134,0.003198,0.005375,-0.009580
9.225144,-0.001030,0.010662,0.004320
9.235184,0.004300,0.010640,0.005403
9.245194,0.028792,0.003090,0.004367
9.255234,0.004280,0.002087,0.007499
9.265275,0.044781,0.006262,0.000153
9.275284,0.016044,0.019156,0.003340
9.285325,0.017068,-0.002257,0.013923
9.295334,0.010688,0.008489,0.004343
9.305375,0.010702,0.009521,0.011825
9.315385,0.001112,0.013854,0.005410
9.325425,0.011770,0.013820,0.005439
9.335465,0.001110,0.009552,0.011799
9.345475,-0.014896,0.007509,0.003199
9.355515,-0.008488,0.012833,0.002174
9.365525,-0.012759,0.010716,0.001084
9.375565,-0.033017,0.009729,-0.002182
9.385575,-0.038351,0.007610,-0.002206
9.395615,-0.034108,0.004428,-0.009687
9.405656,-0.049031,0.003404,-0.008665
9.415665,-0.026666,-0.004155,-0.006503
9.425706,-0.031987,0.001222,-0.010765
9.435715,-0.028790,-0.003095,-0.003299
9.445756,-0.013871,-0.003139,-0.004326
9.455765,-0.004278,-0.004248,-0.002168
9.465806,-0.000008,-0.005360,0.004247
9.475875,0.011701,-0.010738,0.004254
9.485885,0.007416,-0.014965,-0.002187
9.495925,-0.001077,-0.006424,0.004239
9.505935,-0.002164,-0.011740,-0.000062
9.515975,-0.011741,-0.013911,0.013789
9.525985,0.002101,-0.012837,0.003150
9.536025,-0.019184,-0.002094,0.004210
9.546065,-0.006409,-0.007475,0.004220
9.556075,-0.029846,-0.005278,0.007370
9.566115,-0.013877,-0.010660,0.005252
9.576125,-0.023471,-0.009545,0.002026
9.586165,-0.008512,-0.001096,0.011722
9.596175,-0.010665,-0.008559,0.010612
9.606216,-0.003253,-0.022436,0.004158
9.616256,-0.006443,-0.023524,0.010553
9.626266,-0.018155,-0.013829,0.000953
9.636306,0.021261,-0.022516,0.004225
9.646316,-0.028805,-0.014898,0.008396
9.656356,0.004166,-0.032021,-0.006549
9.666366,-0.023487,-0.021343,0.012653
9.676406,-0.000107,-0.033055,-0.010839
9.686446,-0.004324,-0.025647,0.006276
9.696456,-0.019244,-0.022369,0.000909
9.706496,0.003091,-0.039529,0.000890
9.716506,-0.013952,-0.034119,-0.002336
9.736556,0.005229,-0.035249,-0.002289
9.746596,-0.002226,-0.036318,0.003027
9.756637,-0.016097,-0.039456,-0.001299
9.766646,0.004170,-0.036344,0.004112
9.776687,-0.006495,-0.038440,0.003005
9.786696,-0.000109,-0.041664,0.003007
9.796737,-0.008624,-0.039521,0.007267
9.806747,-0.003284,-0.036340,0.008365
9.816787,-0.008612,-0.034171,0.005156
9.826827,0.010557,-0.044958,0.014771
9.836837,-0.002223,-0.035250,0.003032
9.846877,0.016949,-0.040662,0.005196
9.856887,-0.000106,-0.043831,0.009406
9.876937,0.002035,-0.042790,0.013690
9.886977,0.012677,-0.041696,0.000906
9.897018,0.000957,-0.042746,0.005141
9.907027,0.003111,-0.037438,0.010514
9.917068,0.003092,-0.039534,0.001958
9.927077,-0.003303,-0.043820,0.009397
9.937118,0.007355,-0.038470,-0.000162
9.947127,0.005231,-0.035254,-0.001221
9.957168,0.005253,-0.033169,0.009472
9.967208,-0.010753,-0.035212,0.000872
9.977218,0.012704,-0.035319,0.007346
9.987258,-0.004335,-0.026689,0.000930
9.997268,0.002047,-0.032055,0.001990
10.017318,-0.002205,-0.025613,-0.002264
10.027358,-0.036288,-0.021266,0.005140
10.037398,-0.007530,-0.022377,-0.005468
10.047408,-0.035204,-0.010555,-0.002284
10.057448,-0.029897,-0.022350,0.004084
10.067458,-0.034173,-0.023373,-0.002341
10.097549,-0.017120,-0.018044,-0.011883
10.107589,-0.016040,-0.024556,0.009453
10.117599,-0.005387,-0.019190,-0.003310
10.127639,-0.000028,-0.016070,0.010606
10.137649,0.015945,-0.024695,0.017019
10.147689,0.007397,-0.022446,-0.001154
10.157699,0.013816,-0.020386,0.010624
10.167739,-0.004308,-0.019234,0.005238
10.177779,0.014877,-0.022531,0.011685
10.187789,0.002096,-0.019285,0.011665
10.197829,0.002066,-0.025652,0.003089
10.207839,0.001029,-0.018199,0.008462
10.227889,-0.013887,-0.014936,0.006300
10.237929,-0.027742,-0.013813,0.004131
10.247970,-0.024542,-0.011678,0.002013
10.257979,-0.020288,-0.013817,-0.000121
10.268020,-0.025605,-0.011684,0.004147
10.278029,-0.022409,-0.010612,0.000956
10.288070,-0.020273,-0.010634,0.004167
10.298080,-0.012824,-0.013852,0.002035
10.308120,-0.001088,-0.008545,0.001025
10.318160,-0.000036,-0.016044,0.005265
10.328170,-0.009618,-0.010658,0.002059
10.338210,0.013818,-0.015006,0.002104
10.348220,-0.004268,-0.006434,0.008503
10.358260,0.010627,-0.011787,0.001042
10.358260,0.010627,-0.011787,0.001042
10.378310,0.008490,-0.009609,-0.006431
10.388351,-0.010673,-0.008534,0.005271
10.398360,-0.011741,-0.006369,-0.000063
10.408401,-0.006416,-0.006377,-0.002184
10.408401,-0.006416,-0.006377,-0.002184
10.428451,-0.004295,-0.008504,-0.005393
10.448501,-0.013885,-0.010634,-0.000089
10.458541,-0.006426,-0.009575,-0.003268
10.458541,-0.006426,-0.009575,-0.003268
10.468593,-0.021340,-0.012781,0.007358
10.478633,-0.008577,-0.020278,0.003085
10.488643,-0.018122,-0.005316,0.007402
10.498683,-0.018140,-0.011724,0.007372
10.538783,-0.001093,-0.017144,0.012734
10.538783,-0.001093,-0.017144,0.012734
10.558833,0.010597,-0.024617,0.004186
10.558833,0.010597,-0.024617,0.004186
10.568873,-0.003250,-0.021368,0.004163
10.588924,0.007394,-0.028899,0.008429
10.588924,0.007394,-0.028899,0.008429
10.608974,0.002056,-0.028851,0.002006
10.608974,0.002056,-0.028851,0.002006
10.629024,-0.008583,-0.024570,0.007338
10.629024,-0.008583,-0.024570,0.007338
10.639064,-0.008590,-0.021316,-0.003329
10.659114,-0.021366,-0.015929,-0.004407
10.659114,-0.021366,-0.015929,-0.004407
10.679164,-0.029884,-0.012698,-0.004416
10.679164,-0.029884,-0.012698,-0.004416
10.689204,-0.012857,-0.023443,-0.002283
10.699214,-0.005388,-0.024570,0.005210
10.709254,-0.010713,-0.017027,-0.005451
10.729304,-0.005404,-0.027754,0.000922
10.729304,-0.005404,-0.027754,0.000922
10.739314,0.006322,-0.027797,0.002022
10.749354,-0.011776,-0.019185,-0.000123
10.759395,0.003153,-0.016029,-0.000067
10.769404,-0.013896,-0.017062,0.004154
10.779445,0.009541,-0.019259,0.001003
10.809505,-0.013874,-0.013899,0.012714
10.809505,-0.013874,-0.013899,0.012714
10.819545,0.009542,-0.017108,-0.002191
10.829585,-0.001117,-0.020302,0.003106
10.839595,-0.012828,-0.017071,0.005225
10.849635,0.009542,-0.014952,-0.006454
10.869685,-0.002180,-0.015997,-0.003286
10.869685,-0.002180,-0.015997,-0.003286
10.879695,0.008476,-0.016026,-0.004325
10.889735,-0.034123,-0.014916,0.015858
10.899776,0.005272,-0.015996,-0.008607
10.909785,-0.008540,-0.010702,0.010608
10.919826,-0.019229,-0.019186,0.005197
10.939876,-0.023495,-0.020240,0.005180
10.939876,-0.023495,-0.020240,0.005180
10.949885,-0.021375,-0.019133,-0.004422
10.959926,-0.016041,-0.020244,0.000928
10.969966,-0.022454,-0.025552,-0.001251
10.979976,-0.024599,-0.029812,-0.002345
10.990016,-0.019247,-0.029900,0.012624
11.020076,-0.011810,-0.034161,0.005147
11.020076,-0.011810,-0.034161,0.005147
11.030116,-0.001157,-0.032024,-0.002291
11.040156,-0.024557,-0.022403,0.011576
11.050166,0.008433,-0.030972,-0.005464
11.060206,-0.016050,-0.028833,0.010501
11.080257,0.013786,-0.024602,-0.001146
11.080257,0.013786,-0.024602,-0.001146
11.090266,-0.022446,-0.023422,-0.000173
11.100307,0.007377,-0.032077,0.003073
11.110347,-0.022424,-0.014873,-0.001201
11.120357,-0.000068,-0.023484,-0.002248
11.130397,-0.023513,-0.019106,-0.008701
11.160457,-0.016027,-0.013826,-0.001178
11.160457,-0.016027,-0.013826,-0.001178
11.170497,-0.018153,-0.010605,-0.003305
11.180537,-0.016022,-0.012763,-0.000105
11.190547,-0.006414,-0.010689,0.006341
11.200587,-0.011742,-0.004213,-0.004325
11.220637,-0.011748,-0.011734,0.005253
11.220637,-0.011748,-0.011734,0.005253
11.230647,-0.000027,-0.011762,0.003149
11.240687,0.006387,-0.008615,0.010659
11.250728,-0.007479,-0.010690,0.007406
11.260737,-0.002163,-0.016052,0.008464
11.270778,0.005305,-0.011790,0.005300
11.300838,0.003145,-0.021389,0.004180
11.300838,0.003145,-0.021389,0.004180
11.310878,-0.025613,-0.019200,0.012657
11.320918,-0.009663,-0.023443,-0.004410
11.330928,-0.016055,-0.026661,0.003034
11.340968,-0.030965,-0.021263,0.000882
11.361018,-0.011810,-0.034161,0.005147
11.361018,-0.011810,-0.034161,0.005147
11.371028,-0.028854,-0.027668,-0.001279
11.381068,0.013763,-0.032068,-0.003318
11.391109,-0.023513,-0.030954,0.012607
11.401118,0.000970,-0.032016,-0.005490
11.411159,-0.000065,-0.028880,0.009477
11.431209,0.004179,-0.033140,0.004128
11.441218,-0.002192,-0.025654,0.006282
11.451259,-0.000075,-0.026693,-0.001195
11.461299,-0.006452,-0.025650,0.008407
11.471327,-0.001129,-0.026725,0.006280
11.481367,-0.002184,-0.021372,0.004166
11.501417,-0.000047,-0.018165,0.002050
11.511427,-0.011780,-0.019174,-0.002260
11.521467,-0.027749,-0.013793,-0.000142
11.531507,-0.002195,-0.021336,-0.003312
11.541517,-0.038416,-0.016962,-0.000186
11.551557,-0.007511,-0.022438,0.007351
11.571608,-0.002168,-0.014959,0.003128
11.581617,0.003157,-0.018196,0.006332
11.591658,-0.001114,-0.018156,0.000979
11.601698,-0.000055,-0.024603,0.008429
11.611708,0.005270,-0.020298,-0.002218
11.621748,0.015953,-0.018257,0.010640
11.631758,0.009555,-0.016070,0.004223
11.641798,0.020185,-0.022482,-0.002187
11.651808,-0.027730,-0.017083,0.018002
11.661848,0.012715,-0.026735,-0.001160
11.671888,-0.013873,-0.010670,0.007389
11.681898,-0.006455,-0.020255,-0.003318
11.691938,-0.022414,-0.010596,-0.002249
11.711988,-0.046958,-0.024425,0.002959
11.711988,-0.046958,-0.024425,0.002959
11.721998,-0.008597,-0.022368,-0.006539
11.732038,-0.005363,-0.019266,0.012713
11.742079,0.010582,-0.027801,-0.000102
11.752089,-0.007530,-0.028840,0.006252
11.762129,-0.006472,-0.029896,0.003045
11.792189,-0.007537,-0.027742,-0.000152
11.792189,-0.007537,-0.027742,-0.000152
11.802229,-0.009674,-0.030949,0.001963
11.812269,-0.009656,-0.024541,0.001994
11.822279,-0.017107,-0.019162,-0.001206
11.832319,-0.023498,-0.021308,0.005175
11.852369,-0.012834,-0.015977,-0.000111
11.862379,-0.013906,-0.019183,0.000939
11.872419,-0.004318,-0.019204,-0.001171
11.882460,-0.009636,-0.015988,-0.000102
11.892469,-0.013895,-0.015989,0.003091
11.902510,-0.010714,-0.020256,-0.000125
11.922560,-0.013887,-0.012780,0.002038
11.922560,-0.013887,-0.012780,0.002038
11.932569,-0.000039,-0.018190,0.007391
11.942610,-0.014969,-0.018111,0.000941
11.952650,-0.009633,-0.014920,-0.000097
11.962660,0.006354,-0.017128,0.004209
11.972700,-0.025628,-0.020228,0.004106
12.002760,-0.006461,-0.024547,0.000934
12.002760,-0.006461,-0.024547,0.000934
12.012800,-0.004310,-0.019229,0.004170
12.022840,-0.006453,-0.022416,0.002013
12.032850,-0.007525,-0.023470,-0.000132
12.042891,0.002081,-0.022469,0.007377
12.062941,0.007389,-0.028884,0.005225
12.072950,-0.010715,-0.022407,0.003069
12.082991,0.005278,-0.020323,0.003123
12.093000,-0.004303,-0.018171,0.006311
12.103041,0.003133,-0.024583,0.002029
12.113081,0.003135,-0.024588,0.003097
12.133131,0.012726,-0.025692,0.004186
12.143141,0.003169,-0.016080,0.010615
12.153181,0.012735,-0.024644,0.008464
12.163191,0.028721,-0.025769,0.009571
12.173231,0.018087,-0.019347,0.013845
12.183271,0.029799,-0.024735,0.015989
12.203321,-0.000044,-0.021404,0.009513
12.213331,0.029791,-0.024710,0.010648
12.223371,-0.005379,-0.019216,0.002031
12.233381,-0.001116,-0.023536,0.009499
12.243422,-0.006453,-0.022416,0.002013
12.253462,-0.003284,-0.030954,-0.001224
12.263472,-0.018200,-0.030921,0.001940
12.273512,-0.000089,-0.032033,-0.001220
12.283522,0.011668,-0.020329,-0.000064
12.293562,0.000986,-0.027759,-0.002265
12.303572,0.012708,-0.031022,0.002025
12.313612,-0.000067,-0.020255,-0.007573
12.323652,0.005253,-0.027783,-0.000117
12.343702,0.006324,-0.023495,-0.004367
12.353712,-0.010719,-0.024548,0.004127
12.363752,-0.007525,-0.023470,-0.000132
12.373762,-0.009675,-0.027715,-0.004431
12.383802,-0.023510,-0.025579,0.005155
12.393843,-0.008593,-0.020228,-0.007597
12.413893,-0.035222,-0.019114,0.000880
12.423902,-0.009662,-0.019136,-0.011868
12.433943,-0.026666,-0.012774,0.009480
12.443953,-0.034174,-0.024446,-0.001278
12.453993,-0.011762,-0.018152,0.007359
12.464033,-0.022393,-0.005277,0.002050
12.484109,-0.007494,-0.014952,0.005250
12.484109,-0.007494,-0.014952,0.005250
12.494119,-0.008563,-0.013860,0.000979
12.504159,-0.022389,-0.007443,0.008449
12.514169,0.005290,-0.014973,0.001012
12.524209,-0.008555,-0.012808,0.004189
12.534250,-0.004298,-0.016035,0.006322
12.554300,0.010615,-0.018210,0.004216
12.564309,-0.013888,-0.018165,0.011626
12.574350,0.006332,-0.022442,-0.001157
12.584359,0.005288,-0.022510,0.013795
12.594400,-0.001126,-0.020272,-0.003304
12.604440,0.009535,-0.022473,0.003125
12.624490,-0.005414,-0.030953,-0.000161
12.624490,-0.005414,-0.030953,-0.000161
12.634500,-0.007522,-0.024558,0.004136
12.644540,0.002057,-0.021315,-0.010777
12.654550,-0.005408,-0.029895,0.001980
12.664590,-0.011799,-0.030962,0.006230
12.674630,-0.007531,-0.025606,-0.000142
12.704690,0.026579,-0.025732,0.003156
12.704690,0.026579,-0.025732,0.003156
12.714730,0.001028,-0.022506,0.015920
12.724740,0.027651,-0.023600,0.003169
12.734781,0.024484,-0.016144,0.009605
12.744821,0.004232,-0.017151,0.010613
12.754831,0.020179,-0.027847,0.003129
12.764871,-0.008561,-0.020329,0.013767
12.774881,0.009502,-0.034215,0.002001
12.784921,-0.017086,-0.021384,0.016943
12.794931,0.001002,-0.025654,0.004154
12.804971,0.010570,-0.033150,0.002009
12.815011,-0.026678,-0.020275,0.014785
12.825021,0.010564,-0.032052,-0.004395
12.835061,-0.005384,-0.024586,0.008415
12.845071,-0.011797,-0.027738,0.001973
12.855111,0.012703,-0.032084,0.000952
12.865121,-0.020333,-0.031987,0.002997
12.875161,-0.011821,-0.034125,-0.002331
12.885202,0.000982,-0.029900,-0.001207
12.905252,-0.016090,-0.034091,-0.006615
12.915261,0.005250,-0.028851,-0.000122
12.925302,-0.006472,-0.023433,-0.008674
12.935312,-0.004353,-0.029863,-0.005494
12.945352,-0.023523,-0.032002,0.008329
12.955392,-0.000112,-0.031962,-0.016175
12.975442,-0.015024,-0.036251,-0.002349
12.985452,-0.025686,-0.037279,-0.003452
12.995492,-0.013938,-0.028779,-0.002311
13.005502,-0.019246,-0.021286,-0.002290
13.015542,-0.015029,-0.034080,-0.009817
13.025583,-0.008624,-0.036287,0.000873
13.045633,-0.004351,-0.032024,-0.000164
13.055642,0.002066,-0.025652,0.003089
13.065683,-0.016090,-0.041633,0.007236
13.075692,-0.003306,-0.040581,0.001935
13.085733,-0.000075,-0.032078,0.008394
13.095773,-0.000093,-0.038486,0.008363
13.105783,0.012712,-0.036422,0.014818
13.115823,-0.003270,-0.035307,0.015847
13.125833,0.030809,-0.039644,0.006307
13.135873,-0.002189,-0.027820,0.012681
13.145883,0.004165,-0.040636,0.008365
13.155923,-0.011793,-0.030982,0.010503
13.165963,0.003114,-0.032063,0.003062
13.186013,-0.038436,-0.026594,0.004041
13.196023,0.014827,-0.034222,-0.000121
13.206063,-0.049071,-0.019089,0.005115
13.216073,0.022263,-0.042785,-0.001209
13.226114,-0.017094,-0.019203,0.007339
13.236154,0.006308,-0.032064,0.000934
13.256204,0.004208,-0.021383,0.002047
13.266214,0.005228,-0.038478,0.003037
13.276254,0.010613,-0.018205,0.003148
13.286264,0.005272,-0.022459,0.003113
13.296304,0.006313,-0.029923,-0.000124
13.306344,-0.004317,-0.020282,0.000960
13.326394,-0.030958,-0.018054,-0.000171
13.326394,-0.030958,-0.018054,-0.000171
13.336404,-0.005405,-0.023442,-0.007603
13.346444,-0.010737,-0.028799,-0.000166
13.356454,-0.037380,-0.024411,-0.006628
13.366494,0.006281,-0.037363,-0.007637
13.376535,-0.028854,-0.029824,0.002984
13.396585,-0.002249,-0.042710,-0.000208
13.406594,-0.058692,-0.025430,-0.002419
13.416635,-0.001185,-0.039474,-0.007668
13.426645,-0.034185,-0.031952,0.005095
13.436685,-0.019296,-0.039441,-0.002376
13.446725,-0.019281,-0.035179,-0.000220
13.466775,-0.009692,-0.035200,-0.002330
13.476821,-0.022487,-0.044836,0.011476
13.486861,0.002014,-0.041646,-0.002328
13.496871,-0.003271,-0.029917,0.005191
13.506911,-0.011811,-0.035234,0.006210
13.516952,-0.005457,-0.045899,-0.001300
13.537002,-0.008650,-0.040513,-0.008761
13.547011,-0.031007,-0.038365,0.004006
13.557052,-0.037416,-0.040455,-0.001363
13.567061,-0.016117,-0.043703,-0.006661
13.577102,-0.030995,-0.030864,-0.001300
13.587142,-0.017168,-0.039438,-0.004507
13.597152,-0.017166,-0.039443,-0.003439
13.607192,-0.027844,-0.043655,-0.008829
13.617202,-0.015011,-0.031984,-0.001261
13.627242,-0.011819,-0.033052,-0.003394
13.637252,-0.009692,-0.037356,0.001933
13.647292,-0.017143,-0.030899,-0.003398
13.657302,0.002037,-0.035254,0.000907
13.677382,-0.013955,-0.037343,0.001921
13.687392,-0.018225,-0.035152,-0.006626
13.697432,-0.017139,-0.030909,-0.001262
13.707442,-0.018233,-0.041590,-0.000247
13.717483,-0.035291,-0.040442,-0.005630
13.727492,-0.015020,-0.034110,-0.003408
13.747573,-0.022478,-0.035169,-0.000228
13.757583,-0.001179,-0.040573,-0.001263
13.767623,-0.017153,-0.039483,0.005107
13.777633,0.002016,-0.042729,0.000872
13.787673,0.003098,-0.038476,0.004099
13.797683,-0.018201,-0.029843,-0.000191
13.817763,-0.004349,-0.035263,0.007299
13.827773,-0.011807,-0.030937,0.000889
13.837813,-0.006477,-0.029881,-0.000159
13.847823,-0.008589,-0.023472,0.000933
13.857863,-0.015000,-0.029864,0.001954
13.867873,-0.013952,-0.035197,-0.000205
13.877913,-0.010722,-0.025616,0.004122
13.887954,-0.017119,-0.022356,-0.003358
13.897963,-0.004332,-0.024543,-0.001196
13.908004,-0.003256,-0.021348,-0.000110
13.918014,-0.027768,-0.019118,-0.003372
13.928054,-0.005404,-0.027754,0.000922
13.938064,-0.019234,-0.017014,-0.002270
13.948104,-0.018180,-0.022368,-0.000156
13.958144,-0.010731,-0.026664,-0.000156
13.968154,-0.011776,-0.014877,-0.007580
13.968154,-0.011776,-0.014877,-0.007580
13.988204,-0.022442,-0.021281,-0.001231
13.998244,-0.007519,-0.020256,-0.002253
14.008254,-0.002178,-0.017080,-0.000087
14.018294,-0.009653,-0.018088,-0.007590
14.028335,-0.007519,-0.021334,-0.000122
14.038344,0.001016,-0.017080,-0.002214
14.048385,-0.018155,-0.013829,0.000953
14.058394,0.008473,-0.017094,-0.004330
14.068435,-0.017093,-0.015974,0.002014
14.078444,-0.011778,-0.020258,0.000940
14.078444,-0.011778,-0.020258,0.000940
14.098525,-0.023484,-0.013812,0.000938
14.108535,-0.013913,-0.019163,-0.003334
14.118575,-0.010705,-0.014896,-0.004373
14.118575,-0.010705,-0.014896,-0.004373
14.138625,-0.010723,-0.021304,-0.004403
14.148635,-0.016025,-0.013831,-0.000110
14.148635,-0.016025,-0.013831,-0.000110
14.168715,-0.016025,-0.012753,-0.002241
14.178725,-0.008588,-0.022399,-0.000130
14.188765,-0.009633,-0.013842,-0.002229
14.188765,-0.009633,-0.013842,-0.002229
14.198775,-0.008569,-0.015996,0.000969
14.218825,-0.013900,-0.013818,-0.004377
14.228866,-0.023494,-0.017011,-0.000145
14.228866,-0.023494,-0.017011,-0.000145
14.238906,-0.011780,-0.017018,-0.006522
14.248916,-0.002176,-0.014934,-0.002213
14.258956,-0.003248,-0.021373,0.005231
14.268966,-0.006449,-0.020275,0.000954
14.279006,0.004208,-0.021383,0.002047
14.289016,0.002091,-0.014958,-0.000065
14.309096,-0.007514,-0.021349,0.003083
14.309096,-0.007514,-0.021349,0.003083
14.319106,-0.003258,-0.021343,-0.001178
14.329146,-0.006436,-0.019237,0.007369
14.339156,-0.005396,-0.021316,-0.005457
14.349196,-0.005380,-0.024596,0.010551
14.359206,-0.008577,-0.015971,-0.004372
14.379287,-0.029885,-0.021312,0.010499
14.389296,-0.005415,-0.026640,-0.008687
14.399337,-0.014956,-0.013845,0.002030
14.409347,-0.011790,-0.022373,-0.003343
14.419387,-0.006440,-0.017071,0.000970
14.429397,-0.002173,-0.018173,0.005249
14.459487,-0.003225,-0.011752,0.003140
14.459487,-0.003225,-0.011752,0.003140
14.469527,0.005274,-0.017079,-0.005407
14.479566,0.006343,-0.021400,0.004189
14.489606,-0.013892,-0.013843,0.000964
14.499616,0.001012,-0.015992,-0.006482
14.519697,-0.008602,-0.024509,-0.005481
14.519697,-0.008602,-0.024509,-0.005481
14.529706,-0.014986,-0.023446,-0.000152
14.539747,-0.021359,-0.014877,-0.001198
14.549756,-0.003256,-0.021348,-0.000110
14.559797,-0.005404,-0.025598,-0.003341
14.569806,-0.010730,-0.024513,-0.003350
14.599897,-0.007520,-0.023485,0.003073
14.599897,-0.007520,-0.023485,0.003073
14.609937,0.000993,-0.026702,-0.000124
14.619947,0.007401,-0.023534,0.003114
14.629987,-0.007513,-0.022433,0.006282
14.639997,0.012717,-0.027818,0.002040
14.660077,-0.004340,-0.026674,-0.002275
14.660077,-0.004340,-0.026674,-0.002275
14.670087,0.010592,-0.025680,0.003112
14.680127,-0.034143,-0.017006,0.006234
14.690137,-0.001147,-0.025591,-0.007602
14.700178,-0.017100,-0.020261,0.005198
14.710187,-0.011791,-0.023446,-0.002280
14.740278,-0.007527,-0.022387,-0.003331
14.740278,-0.007527,-0.022387,-0.003331
14.750318,-0.006452,-0.022421,0.003081
14.760328,-0.010719,-0.023470,0.001996
14.770368,-0.011797,-0.025582,-0.002290
14.780378,0.002067,-0.022423,-0.002237
14.800458,-0.027780,-0.024467,-0.001261
14.800458,-0.027780,-0.024467,-0.001261
14.810468,0.010570,-0.033150,0.002009
14.820508,0.003137,-0.019208,-0.005423
14.830518,-0.005402,-0.026681,-0.000141
14.840558,0.002052,-0.032070,0.005195
14.850568,-0.005391,-0.019175,-0.006515
14.880659,-0.006471,-0.025589,-0.004412
14.880659,-0.006471,-0.025589,-0.004412
14.890699,-0.006452,-0.021343,0.000949
14.900709,-0.004336,-0.021299,-0.009727
14.910749,-0.007536,-0.025591,-0.003347
14.920759,-0.020322,-0.024481,-0.003377
14.940839,-0.007528,-0.024538,-0.000137
14.940839,-0.007528,-0.024538,-0.000137
14.950849,-0.030989,-0.026572,-0.005552
14.960889,-0.002219,-0.028802,-0.005483
14.970899,-0.013916,-0.021308,-0.001207
14.980939,-0.010738,-0.024487,-0.008691
14.990949,-0.005392,-0.022404,-0.001189
15.011030,-0.019272,-0.027668,-0.007662
15.011030,-0.019272,-0.027668,-0.007662
15.021039,-0.003271,-0.025610,-0.002267
15.031080,-0.013930,-0.022341,-0.008690
15.041089,-0.023538,-0.028722,-0.007678
15.051130,-0.015019,-0.031959,-0.006602
15.061139,-0.010741,-0.026633,-0.006565
15.081220,-0.002229,-0.030922,-0.008698
15.081220,-0.002229,-0.030922,-0.008698
15.091230,-0.023519,-0.022320,-0.006580
15.101270,-0.010764,-0.030869,-0.014063
15.111280,-0.003291,-0.029856,-0.007628
15.121320,-0.016064,-0.023402,-0.008701
15.131330,0.018021,-0.033144,-0.004380
15.161420,0.002059,-0.021320,-0.009709
15.161420,0.002059,-0.021320,-0.009709
15.171461,0.004160,-0.033079,-0.008691
15.181470,-0.000105,-0.031982,-0.011902
15.191511,0.013768,-0.022391,-0.017159
15.201520,-0.016018,-0.009544,-0.003294
15.221570,-0.005391,-0.013790,-0.016103
15.231611,-0.014999,-0.020171,-0.015092
15.241651,-0.027761,-0.010523,-0.014013
15.251661,-0.017100,-0.009490,-0.013979
15.261701,-0.002189,-0.012737,-0.015021
15.271711,-0.025635,-0.014822,-0.009755
15.301801,-0.006438,-0.010613,-0.009682
15.301801,-0.006438,-0.010613,-0.009682
15.311841,-0.000081,-0.021288,-0.015056
15.321851,-0.025643,-0.021260,-0.003376
15.331891,0.005246,-0.021300,-0.016109
15.341901,-0.017097,-0.015964,-0.000123
15.361951,0.008432,-0.029889,-0.008664
15.371992,-0.009650,-0.017020,-0.007585
15.382032,-0.002251,-0.031930,-0.021522
15.392042,0.012716,-0.026740,-0.000091
15.402082,-0.016055,-0.015891,-0.016143
15.412092,0.045707,-0.036388,-0.015001
15.432142,0.012675,-0.033071,-0.016145
15.432142,0.012675,-0.033071,-0.016145
15.442182,-0.007519,-0.020256,-0.002253
15.452222,-0.005395,-0.017009,-0.012914
15.462232,0.003113,-0.025595,-0.009726
15.472291,-0.025646,-0.020172,-0.007644
15.482301,-0.003285,-0.020179,-0.021469
15.512391,0.006324,-0.019188,-0.011824
15.522432,-0.011796,-0.022353,-0.007616
15.532441,-0.003283,-0.022340,-0.016138
15.542482,-0.000068,-0.014865,-0.018230
15.552491,-0.005406,-0.018051,-0.018260
15.572542,-0.012863,-0.018037,-0.016144
15.572542,-0.012863,-0.018037,-0.016144
15.582582,-0.000068,-0.017021,-0.013967
15.592622,-0.018151,-0.004147,-0.013957
15.602632,0.015913,-0.018131,-0.016065
15.612672,-0.026706,-0.011570,-0.019356
15.622682,-0.005400,-0.014838,-0.020381
15.642732,-0.017109,-0.010538,-0.018257
15.652772,-0.016043,-0.010541,-0.018254
15.662813,-0.008597,-0.012676,-0.023584
15.672822,-0.027745,-0.010574,-0.003331
15.682863,-0.017114,-0.011601,-0.019330
15.692872,0.009518,-0.017032,-0.018214
15.712922,-0.000097,-0.027700,-0.014018
15.712922,-0.000097,-0.027700,-0.014018
15.722963,-0.008597,-0.022368,-0.006539
15.733003,0.001005,-0.013816,-0.015018
15.743013,0.001013,-0.012763,-0.011808
15.753053,-0.002193,-0.018112,-0.007569
15.763063,0.009529,-0.017067,-0.010737
15.783113,0.008434,-0.033128,-0.001202
15.783113,0.008434,-0.033128,-0.001202
15.793153,-0.004286,-0.005300,-0.005378
15.803193,0.014847,-0.022434,-0.008611
15.813203,-0.014968,-0.015960,-0.002253
15.823243,0.003119,-0.020230,-0.015042
15.833253,-0.003248,-0.013832,-0.008620
15.853303,-0.005397,-0.013770,-0.020376
15.863344,-0.032026,-0.013734,-0.009767
15.873384,-0.021369,-0.005149,-0.025721
15.883394,-0.017079,-0.002015,-0.013944
15.893434,-0.040524,-0.000871,-0.014003
15.903444,-0.008599,-0.015900,-0.019327
15.923494,-0.024566,-0.008373,-0.019335
15.923494,-0.024566,-0.008373,-0.019335
15.933534,-0.003255,-0.010578,-0.019287
15.943574,-0.014951,-0.003090,-0.013943
15.953584,0.002071,-0.012741,-0.017146
15.963624,-0.014976,-0.010550,-0.017183
15.973634,0.007395,-0.017050,-0.012879
16.003724,-0.031997,-0.005210,-0.005454
16.003724,-0.031997,-0.005210,-0.005454
16.013765,-0.022455,-0.014777,-0.021496
16.023774,-0.008615,-0.024469,-0.014026
16.033815,-0.038424,-0.008318,-0.021510
16.043824,-0.030965,-0.008337,-0.022558
16.053865,-0.028817,-0.009472,-0.009738
16.063875,-0.030964,-0.011571,-0.016164
16.073915,-0.023522,-0.015847,-0.020436
16.083955,-0.003239,-0.007399,-0.013931
16.093965,-0.027736,-0.001985,-0.012905
16.104005,-0.013916,-0.019152,-0.005470
16.114015,-0.036295,-0.012627,-0.015115
16.124055,-0.000096,-0.024471,-0.019344
16.134065,-0.008534,0.004360,-0.012822
16.144105,-0.034128,-0.004126,-0.007591
16.154146,-0.006460,-0.013776,-0.018243
16.164155,-0.026673,-0.003057,-0.012907
16.174196,-0.032023,-0.009437,-0.015088
16.184205,-0.007548,-0.021243,-0.019349
16.204255,-0.009653,-0.010547,-0.021441
16.214296,-0.046936,-0.007257,-0.014051
16.224336,-0.020335,-0.016900,-0.025773
16.234346,-0.043733,-0.006210,-0.011901
16.244386,-0.027782,-0.014765,-0.020443
16.254396,-0.021375,-0.011592,-0.018274
16.274446,-0.008628,-0.026579,-0.019377
16.284486,-0.020298,-0.013787,-0.006531
16.294526,0.006343,-0.011707,-0.012856
16.304536,0.002057,-0.020237,-0.012909
16.314576,-0.024547,-0.011663,-0.001191
16.324586,-0.000100,-0.028768,-0.014023
16.344636,-0.004315,-0.014902,-0.007560
16.354677,0.009525,-0.020286,-0.007547
16.364717,-0.014997,-0.027718,-0.000173
16.374727,-0.023538,-0.027644,-0.009810
16.384767,-0.000079,-0.024527,-0.007594
16.394777,-0.054411,-0.013651,-0.011965
16.404817,-0.055576,-0.051035,-0.010009
16.414827,-0.071507,-0.015615,-0.036591
16.424867,-0.088650,-0.035739,-0.060234
16.434907,-0.116261,-0.006881,-0.046287
16.444917,-0.067276,-0.020913,-0.048354
16.454957,-0.072666,-0.045478,-0.044213
16.464967,-0.092773,0.002609,-0.036563
16.485044,-0.082174,-0.015550,-0.043029
16.495084,-0.010849,-0.028445,-0.074939
16.505125,-0.014049,-0.044585,-0.047251
16.515134,-0.043762,-0.010426,-0.023671
16.525175,0.032903,-0.036300,-0.024650
16.535184,-0.014950,-0.011709,0.002040
16.555235,-0.006457,-0.031020,0.014790
16.565275,0.014892,-0.009650,-0.002141
16.575315,0.071325,-0.030129,-0.001014
16.585325,-0.019199,-0.010662,0.009510
16.595365,0.030807,-0.035327,-0.003287
16.605375,0.023509,0.001883,0.037461
16.625425,0.039390,-0.019376,0.005358
16.625425,0.039390,-0.019376,0.005358
16.635465,-0.003200,-0.004292,0.006380
16.645506,0.042615,-0.004395,-0.003108
16.655515,0.053374,0.014641,0.029059
16.665556,0.063923,-0.009824,0.001198
16.675565,0.013855,-0.011893,0.021346
16.695615,0.073572,0.000738,0.019435
16.705656,0.067145,-0.010988,0.019361
16.715665,0.063998,0.003943,0.025833
16.725706,0.092731,-0.002478,0.008790
16.735746,0.079970,-0.005756,0.033308
16.745756,0.062875,-0.008798,0.010814
16.755796,0.090629,-0.005796,0.034406
16.765806,0.076799,0.015714,0.012037
16.775846,0.062898,0.000823,0.008723
16.785856,0.013899,-0.002338,0.033142
16.795896,0.047945,-0.005490,-0.000962
16.805936,0.025591,-0.001197,0.009679
16.815946,0.008578,0.012737,0.010766
16.835996,0.005359,-0.000113,0.020310
16.846037,0.003184,-0.002121,-0.005342
16.856046,0.019156,-0.008591,-0.003192
16.866087,-0.014907,0.006466,-0.002147
16.876127,0.004227,-0.009595,-0.006443
16.886137,-0.027740,-0.011667,0.002005
16.906187,-0.033082,-0.014839,-0.001230
16.916227,-0.022399,-0.008491,0.004171
16.926237,-0.023504,-0.018058,-0.004423
16.936277,-0.019250,-0.023427,-0.001232
16.946317,-0.052248,-0.005140,-0.006578
16.956327,-0.043771,-0.020093,-0.011966
16.976377,-0.098083,0.003644,-0.025891
16.976377,-0.098083,0.003644,-0.025891
16.986417,-0.116161,0.019732,-0.028001
16.996427,-0.095982,-0.008115,-0.024873
17.006467,-0.098065,-0.002875,-0.002421
17.016508,-0.085354,-0.009132,-0.043008
17.026517,-0.058702,-0.017858,-0.022679
17.046568,-0.027836,-0.035061,-0.019471
17.056608,-0.054388,-0.011571,-0.000205
17.066618,-0.020367,-0.025418,-0.031155
17.076658,-0.041611,-0.020191,0.007267
17.086698,-0.013918,-0.022376,-0.001213
17.096708,-0.020347,-0.033020,-0.004485
17.116758,-0.001134,-0.027788,0.005206
17.126798,0.004170,-0.042807,0.015832
17.136808,0.003074,-0.050249,0.009385
17.146848,-0.004360,-0.040613,0.009410
17.156889,0.026576,-0.037570,0.022328
17.166898,0.062838,-0.036691,0.037388
17.176939,0.006269,-0.048098,0.004063
17.186948,0.027615,-0.040722,0.010566
17.196989,0.059656,-0.028112,0.032078
17.206998,0.044650,-0.046107,0.008451
17.217039,0.015851,-0.057791,0.014725
17.227079,0.035086,-0.047240,0.028715
17.237089,0.097996,-0.039994,0.034264
17.247129,0.059616,-0.037678,0.022419
17.257139,0.064872,-0.065471,0.024438
17.267179,0.072398,-0.038772,0.019245
17.277189,0.070263,-0.034448,0.009645
17.287229,0.088315,-0.066610,0.023430
17.297269,0.063873,-0.038749,0.020289
17.307279,0.080889,-0.052693,0.021339
17.317319,0.068105,-0.055901,0.030902
17.327329,0.068119,-0.041942,0.014945
17.337370,0.076604,-0.055842,0.012766
17.347379,0.056390,-0.038654,0.005314
17.357420,0.036137,-0.036427,-0.000072
17.367460,0.042508,-0.048221,0.005230
17.377470,0.023341,-0.035287,-0.006512
17.397520,0.031844,-0.035239,-0.022511
17.407560,0.020140,-0.034189,-0.010788
17.417570,0.024403,-0.038510,-0.003319
17.427610,0.013778,-0.029962,0.003101
17.437650,0.019107,-0.028901,0.000984
17.447660,0.021235,-0.027820,-0.003278
17.467710,-0.005416,-0.030948,-0.001230
17.477780,-0.000071,-0.028859,0.005204
17.487790,-0.032027,-0.019119,-0.000179
17.497830,-0.011794,-0.026670,0.001978
17.507871,-0.023494,-0.018089,0.001986
17.517881,-0.019246,-0.020208,-0.004422
17.527921,-0.039482,-0.020188,0.005136
17.537931,-0.038429,-0.021229,-0.001275
17.547971,-0.033102,-0.019085,-0.006591
17.557981,-0.040558,-0.019076,-0.003407
17.568021,-0.053333,-0.013695,-0.003417
17.578061,-0.043756,-0.016909,-0.007678
17.588071,-0.036306,-0.023362,-0.003416
17.608121,-0.035218,-0.015895,-0.002309
17.618161,-0.023495,-0.014855,-0.004408
17.628171,-0.028824,-0.015915,-0.002291
17.638211,-0.018167,-0.018101,0.000932
17.648252,-0.019224,-0.012738,-0.003318
17.658261,-0.017117,-0.023439,-0.000158
17.668302,-0.024546,-0.011668,-0.000123
17.678311,-0.005389,-0.021336,-0.001184
17.688352,-0.014975,-0.021325,0.003062
17.698361,-0.012850,-0.021312,-0.001205
17.708402,-0.006422,-0.012820,0.005263
17.718442,-0.014957,-0.015996,0.005224
17.728452,0.002089,-0.014953,-0.001133
17.748502,-0.009612,-0.008522,0.002070
17.758542,0.004222,-0.014965,-0.000059
17.758542,0.004222,-0.014965,-0.000059
17.768552,-0.003241,-0.019243,0.006309
17.778592,0.005279,-0.019250,0.002060
17.798642,0.011663,-0.023543,0.002057
17.808683,0.012721,-0.024599,-0.001149
17.808683,0.012721,-0.024599,-0.001149
17.818692,0.005277,-0.023552,0.008449
17.828733,0.022328,-0.023603,0.007428
17.838742,0.029776,-0.027893,0.006360
17.848783,0.019119,-0.027864,0.007399
17.858823,0.005278,-0.021401,0.005254
17.868833,0.021245,-0.030007,0.007394
17.898923,0.002061,-0.031022,0.009473
17.898923,0.002061,-0.031022,0.009473
17.908933,0.008451,-0.029950,0.004155
17.918973,-0.007518,-0.021339,0.000946
17.929013,0.007369,-0.036359,0.005189
17.939023,-0.019263,-0.030928,0.004073
17.969113,0.008451,-0.031028,0.006286
17.969113,0.008451,-0.031028,0.006286
17.979123,-0.002184,-0.025679,0.011623
17.989163,0.019114,-0.026771,0.002063
17.999204,0.015928,-0.025718,0.007400
18.009214,0.005260,-0.029960,0.008419
18.029264,0.014840,-0.033185,0.006293
18.029264,0.014840,-0.033185,0.006293
18.039304,-0.001148,-0.029899,-0.000145
18.049314,-0.004328,-0.023481,-0.000123
18.059354,-0.005405,-0.028827,0.001985
18.069394,-0.018192,-0.027717,0.001955
18.079404,-0.004312,-0.017068,-0.001161
18.109494,-0.011763,-0.013840,-0.001166
18.109494,-0.011763,-0.013840,-0.001166
18.119504,-0.005382,-0.019205,-0.000106
18.129544,-0.003244,-0.017076,-0.000090
18.139585,-0.014937,-0.006364,0.000997
18.149594,0.006356,-0.012826,-0.002180
18.179685,-0.000029,-0.010679,-0.000051
18.179685,-0.000029,-0.010679,-0.000051
18.189694,-0.007474,-0.008550,0.006348
18.199735,-0.007494,-0.011718,-0.001144
18.209775,-0.001089,-0.009618,0.002088
18.219785,-0.009617,-0.010663,0.003128
18.239835,-0.009610,-0.010684,0.007400
18.239835,-0.009610,-0.010684,0.007400
18.249875,-0.014962,-0.013824,-0.002243
18.259885,-0.008563,-0.013860,0.000979
18.269925,-0.017077,-0.011717,0.005238
18.279965,-0.001126,-0.020272,-0.003304
18.289975,-0.026660,-0.010638,0.009490
18.310025,-0.002166,-0.017120,0.008459
18.320066,-0.011769,-0.018132,0.003086
18.330075,0.001022,-0.016022,-0.000073
18.340116,0.003153,-0.022493,0.011653
18.350125,-0.004308,-0.019234,0.005238
18.360166,0.012739,-0.020347,0.003144
18.380216,0.003136,-0.023515,0.002034
18.380216,0.003136,-0.023515,0.002034
18.390256,0.011686,-0.021462,0.013818
18.400266,0.007404,-0.023544,0.005250
18.410306,-0.000037,-0.017117,0.006328
18.420316,0.007419,-0.020360,0.009538
18.430356,0.004208,-0.023539,0.006310
18.460446,-0.001120,-0.020292,0.000969
18.460446,-0.001120,-0.020292,0.000969
18.470456,-0.012820,-0.012789,0.003109
18.480539,-0.010697,-0.015999,0.003099
18.490549,-0.000056,-0.020291,-0.000096
18.500590,-0.016007,-0.010658,0.006315
18.530680,0.001031,-0.016053,0.006336
18.530680,0.001031,-0.016053,0.006336
18.540690,0.007417,-0.017121,0.002076
18.550730,-0.005355,-0.012828,0.006334
18.560740,-0.000030,-0.012830,0.003144
18.570780,-0.000033,-0.014976,0.005270
18.590830,0.005303,-0.011785,0.004232
18.600870,-0.012803,-0.010688,0.010596
18.610880,0.002102,-0.010686,-0.000045
18.620920,-0.007478,-0.011769,0.009538
18.630930,-0.004295,-0.011733,-0.000067
18.640970,-0.004295,-0.014967,0.006327
18.661020,0.004221,-0.014960,-0.001127
18.671061,-0.005344,-0.011786,0.011680
18.681070,-0.017089,-0.015989,0.005218
18.691111,-0.000042,-0.017102,0.003124
18.701121,-0.012813,-0.016043,0.013775
18.711161,-0.003257,-0.023499,0.003084
18.721201,-0.002161,-0.017136,0.011663
18.731211,0.002083,-0.021396,0.006314
18.741251,-0.004315,-0.022443,0.006291
18.751261,0.001019,-0.023554,0.011642
18.761301,0.003128,-0.028875,0.006281
18.771311,-0.003249,-0.022446,0.006294
18.781351,0.007410,-0.022486,0.007392
18.791392,0.000993,-0.029936,0.006270
18.801401,-0.007519,-0.026719,0.009467
18.811442,0.001013,-0.023533,0.007369
18.821451,-0.005390,-0.025643,0.006273
18.831492,-0.006445,-0.023519,0.009485
18.841501,0.010590,-0.026748,0.003107
18.851542,-0.002178,-0.023543,0.011633
18.871592,0.001013,-0.023533,0.007369
18.881632,-0.001116,-0.021380,0.005237
18.891642,-0.003247,-0.023530,0.009494
18.901682,-0.002201,-0.027779,0.004135
18.911692,-0.006436,-0.019237,0.007369
18.921732,-0.008587,-0.024555,0.004133
18.941782,-0.009628,-0.017091,0.007370
18.941782,-0.009628,-0.017091,0.007370
18.951822,0.000999,-0.027800,0.006281
18.961832,-0.011777,-0.024570,0.009465
18.971872,-0.001127,-0.023501,0.002022
18.981882,0.007413,-0.020340,0.005265
18.991923,-0.020298,-0.021328,0.007320
19.011973,0.002090,-0.019265,0.007392
19.022013,-0.017097,-0.020271,0.007334
19.032023,-0.000046,-0.019243,0.004182
19.042063,-0.007490,-0.016040,0.009517
19.052073,-0.016027,-0.018133,0.006279
19.062113,-0.008566,-0.019235,0.008431
19.082163,-0.014948,-0.016026,0.011633
19.092203,-0.017093,-0.018130,0.006276
19.102213,-0.006435,-0.017086,0.004174
19.112253,-0.012820,-0.017096,0.010566
19.122263,-0.013897,-0.017057,0.003086
19.132303,-0.011757,-0.016016,0.007369
19.152353,-0.010710,-0.021344,0.004142
19.152353,-0.010710,-0.021344,0.004142
19.162394,-0.013878,-0.012811,0.008447
19.172403,-0.008572,-0.021371,0.008421
19.182444,-0.012834,-0.020284,0.007346
19.192454,-0.012828,-0.018149,0.007356
19.202494,-0.007511,-0.020282,0.003088
19.222544,-0.013906,-0.020261,0.003070
19.232584,-0.009644,-0.022426,0.006277
19.242594,-0.025613,-0.018122,0.010526
19.252634,-0.007519,-0.021334,-0.000122
19.262644,-0.018151,-0.018152,0.011614
19.272684,-0.018172,-0.022393,0.005185
19.302775,-0.001123,-0.022438,0.003095
19.312784,-0.012814,-0.018194,0.016970
19.322825,-0.002176,-0.021397,0.009507
19.332834,0.004225,-0.020360,0.011666
19.342875,-0.005358,-0.019281,0.015917
19.352915,0.007424,-0.019298,0.010611
19.362925,0.006360,-0.022533,0.018071
19.372965,-0.008567,-0.023543,0.015888
19.382975,0.012734,-0.025717,0.009527
19.393015,0.015964,-0.021522,0.023443
19.403025,-0.000041,-0.022492,0.013780
19.413065,0.012745,-0.025753,0.017005
19.423105,-0.000021,-0.019324,0.021273
19.433115,0.014871,-0.023588,0.009543
19.443155,0.009584,-0.012932,0.018125
19.453165,0.003173,-0.016090,0.012751
19.463205,0.007422,-0.020371,0.011674
19.473215,0.003189,-0.011833,0.015976
19.483258,-0.002137,-0.010748,0.015966
19.503308,-0.005322,-0.009700,0.022372
19.513348,0.017025,-0.018281,0.014916
19.523358,0.011725,-0.011892,0.022409
19.533398,-0.006379,-0.005415,0.020253
19.543408,0.018092,-0.013977,0.007461
19.553448,-0.007433,-0.002218,0.022401
19.573498,-0.003190,-0.008629,0.020246
19.583538,-0.015946,0.004233,0.019204
19.593548,0.003198,-0.007552,0.013860
19.603588,-0.008506,-0.006501,0.025583
19.613598,-0.002134,-0.009680,0.015972
19.623638,-0.006365,-0.003304,0.025604
19.643688,0.005356,0.000975,0.016043
19.643688,0.005356,0.000975,0.016043
19.653729,-0.005291,-0.000104,0.025622
19.663738,-0.004256,-0.004319,0.012786
19.673779,-0.009566,-0.002206,0.021327
19.683789,-0.023386,0.008498,0.025613
19.693829,-0.004253,-0.003251,0.012791
19.713879,-0.015966,-0.001092,0.015974
19.723919,-0.011704,-0.003257,0.019180
19.733929,-0.044695,0.007469,0.031958
19.743969,-0.005322,-0.001081,0.006389
19.753979,-0.022337,0.001009,0.027717
19.764019,-0.026612,0.001058,0.020228
19.774060,-0.009575,-0.003254,0.017050
19.784069,-0.014854,0.005221,0.035235
19.794110,-0.003172,-0.000071,0.017082
19.804119,-0.004214,-0.000143,0.033102
19.814160,-0.001040,-0.002234,0.021351
19.824169,-0.010621,-0.000082,0.024539
19.834210,-0.017001,0.002045,0.030941
19.854260,-0.026601,-0.002206,0.033031
19.864300,-0.006374,-0.005430,0.023457
19.874310,-0.015938,0.002051,0.028807
19.884350,-0.007428,-0.004389,0.029869
19.894360,-0.011699,-0.004350,0.024516
19.904400,-0.011697,-0.006511,0.029847
19.924450,-0.008510,-0.008642,0.026641
19.924450,-0.008510,-0.008642,0.026641
19.934490,-0.017022,-0.007582,0.034100
19.944500,-0.007438,-0.006510,0.026654
19.954540,0.003222,-0.004398,0.024557
19.964550,-0.010624,-0.003306,0.028797
19.974591,-0.013838,-0.006474,0.023432
20.004681,-0.012736,0.004182,0.027758
20.014691,-0.009541,0.000947,0.032025
20.024731,0.001109,-0.000140,0.028844
20.034741,-0.007390,0.006265,0.035260
20.044781,-0.000999,0.006254,0.033141
20.054791,0.003263,0.006245,0.032085
20.064831,0.000081,0.007283,0.040627
20.074871,-0.002055,0.007305,0.037416
20.084881,-0.008436,0.009437,0.042750
20.094921,-0.007354,0.014768,0.043846
20.104931,0.003295,0.012607,0.041729
20.114971,-0.009493,0.012644,0.042762
20.135021,-0.023342,0.016976,0.039540
20.145062,-0.021201,0.019095,0.041692
20.155071,-0.030793,0.018048,0.043797
20.165112,-0.028682,0.012721,0.039505
20.175122,-0.034004,0.013791,0.042700
20.185162,-0.031875,0.014873,0.038438
20.205212,-0.030819,0.008436,0.043751
20.215252,-0.030815,0.010577,0.042693
20.225262,-0.019091,0.009461,0.044857
20.235302,-0.019082,0.012665,0.044872
20.245312,-0.005242,0.009436,0.040622
20.255352,-0.023333,0.015872,0.047012
20.265362,-0.011647,0.006258,0.039521
20.275402,-0.023333,0.015872,0.047012
20.285443,-0.026540,0.013757,0.044857
20.295452,-0.024428,0.009504,0.039501
20.305493,-0.040399,0.010583,0.048008
20.315502,-0.034013,0.008437,0.045879
20.325543,-0.035061,0.011614,0.052300
20.345593,-0.028686,0.008424,0.044826
20.355633,-0.028661,0.010500,0.057654
20.365643,-0.027596,0.013730,0.051263
20.375683,-0.024401,0.006189,0.062986
20.385693,-0.017987,0.011492,0.066234
20.395733,-0.006287,0.009374,0.054506
20.415783,-0.005214,0.005038,0.067307
20.425823,-0.011594,0.006091,0.074772
20.435833,-0.008421,0.000772,0.068346
20.445873,-0.009457,0.009298,0.072656
20.455883,-0.010540,0.007201,0.065166
20.465924,-0.017998,0.008294,0.065151
20.475964,-0.028646,0.008298,0.071530
20.486005,-0.020110,0.008240,0.077963
20.496045,-0.014786,0.010394,0.070510
20.506055,-0.021190,0.006133,0.072609
20.516095,-0.018006,0.002934,0.069398
20.526105,-0.011610,0.002908,0.070484
20.536145,-0.010525,0.006078,0.076911
20.556195,0.006508,0.000698,0.073728
20.566235,-0.006248,0.008175,0.082274
20.576245,0.001175,-0.001426,0.074771
20.586285,0.001211,0.004921,0.087620
20.596295,-0.004119,0.006022,0.084406
20.606335,0.008650,-0.001495,0.084406
20.616345,0.007608,0.003817,0.090837
20.626385,-0.006243,0.007081,0.087610
20.636426,0.002267,0.001719,0.086540
20.646436,-0.007292,0.009185,0.095094
20.656476,-0.000905,0.009190,0.089771
20.666486,0.000172,0.009151,0.097251
20.676526,-0.009410,0.012381,0.098308
20.686536,-0.001962,0.010241,0.094046
20.696576,-0.011525,0.014488,0.105790
20.706616,-0.007281,0.010228,0.100440
20.716626,-0.009402,0.012355,0.103649
20.726666,-0.012604,0.011303,0.102567
20.736676,-0.010467,0.014510,0.100452
20.746716,-0.014732,0.011300,0.104698
20.756726,-0.014741,0.009174,0.102551
20.766766,-0.022207,0.008135,0.101457
20.776807,-0.014756,0.004912,0.100395
20.786816,-0.019003,0.010261,0.101476
20.796857,-0.014741,0.007018,0.106814
20.806866,-0.018998,0.007012,0.111075
20.816907,-0.026461,0.007046,0.108918
20.836957,-0.026459,0.008114,0.108923
20.846997,-0.022208,0.002755,0.109978
20.857007,-0.031795,0.004922,0.109961
20.867047,-0.036063,0.001722,0.112071
20.877057,-0.034990,0.001694,0.117415
20.887097,-0.037137,-0.000405,0.110990
20.897107,-0.041380,0.003855,0.116339
20.907147,-0.041405,-0.003605,0.113099
20.917187,-0.043526,-0.001478,0.116308
20.927197,-0.049924,-0.001447,0.114154
20.937238,-0.049924,-0.002525,0.116285
20.947247,-0.048857,-0.001455,0.115225
20.957288,-0.046715,-0.000419,0.120577
20.987378,-0.041380,0.001699,0.120602
20.997388,-0.045639,0.004932,0.117401
21.007428,-0.039238,0.004891,0.121691
21.017438,-0.039242,0.001672,0.124880
21.027478,-0.053093,0.006014,0.119522
21.037488,-0.037109,0.004894,0.119560
21.047528,-0.045622,0.005954,0.127019
21.057568,-0.044575,0.001704,0.121661
21.067578,-0.059486,0.002796,0.126966
21.077618,-0.052036,0.002807,0.119509
21.087628,-0.043497,0.000582,0.132341
21.097668,-0.046705,0.000628,0.124855
21.107678,-0.049898,0.002780,0.123788
21.117718,-0.052030,-0.001521,0.131239
21.127759,-0.050974,-0.001494,0.124833
21.137769,-0.050960,-0.002617,0.136578
21.147809,-0.048848,-0.005793,0.129091
21.157819,-0.055217,0.001688,0.132314
21.167859,-0.056283,0.000614,0.134442
21.187909,-0.052005,0.003784,0.138742
21.197949,-0.046698,-0.003704,0.137653
21.207959,-0.048829,-0.005853,0.141910
21.217999,-0.048810,0.000549,0.143008
21.228009,-0.038155,0.001603,0.138770
21.238049,-0.050927,0.002667,0.148354
21.248059,-0.037093,-0.001620,0.141962
21.258099,-0.034951,-0.000584,0.147314
21.268140,-0.033877,0.000465,0.150527
21.278149,-0.040270,0.000481,0.151577
21.288190,-0.044542,0.000520,0.146225
21.298199,-0.047740,-0.002699,0.151542
21.308240,-0.047728,0.000495,0.153693
21.318249,-0.054139,-0.005897,0.154713
21.318249,-0.054139,-0.005897,0.154713
21.338330,-0.050948,-0.005887,0.150449
21.348340,-0.055201,-0.006981,0.158978
21.358380,-0.055203,-0.006976,0.157910
21.368390,-0.047748,-0.008058,0.155789
21.378430,-0.057322,-0.005932,0.164318
21.398480,-0.044530,-0.007057,0.167553
21.408520,-0.046663,-0.007045,0.166479
21.408520,-0.046663,-0.007045,0.166479
21.428571,-0.035994,-0.008193,0.176117
21.428571,-0.035994,-0.008193,0.176117
21.438580,-0.033867,-0.003877,0.165461
21.458630,-0.028540,-0.007119,0.169733
21.478744,-0.042365,0.000372,0.176140
21.478744,-0.042365,0.000372,0.176140
21.488754,-0.034921,-0.004987,0.175067
21.498794,-0.051966,-0.004957,0.180361
21.508804,-0.034922,-0.008216,0.180393
21.518844,-0.040243,-0.008224,0.185719
21.528854,-0.046634,-0.004985,0.182512
21.558944,-0.044508,-0.008205,0.184639
21.558944,-0.044508,-0.008205,0.184639
21.578994,-0.041321,-0.014644,0.188890
21.578994,-0.041321,-0.014644,0.188890
21.589034,-0.044508,-0.011435,0.189965
21.599044,-0.043434,-0.012541,0.197440
21.619094,-0.054090,-0.010361,0.195285
21.619094,-0.054090,-0.010361,0.195285
21.639175,-0.046639,-0.013584,0.194222
21.639175,-0.046639,-0.013584,0.194222
21.659225,-0.041301,-0.011475,0.196383
21.659225,-0.041301,-0.011475,0.196383
21.669235,-0.044488,-0.008266,0.197457
21.699325,-0.035960,-0.009377,0.200680
21.699325,-0.035960,-0.009377,0.200680
21.709365,-0.050868,-0.005062,0.201728
21.719375,-0.045549,-0.009356,0.202790
21.729415,-0.042351,-0.007215,0.199605
21.739425,-0.058319,-0.003990,0.205985
21.759475,-0.057274,-0.009313,0.201690
21.759475,-0.057274,-0.009313,0.201690
21.769515,-0.072196,-0.006030,0.195255
21.779556,-0.059431,-0.013537,0.193118
21.789565,-0.065774,-0.000752,0.203843
21.799606,-0.056240,-0.013527,0.188854
21.809615,-0.067922,-0.007158,0.204875
21.839706,-0.048750,-0.006101,0.194251
21.839706,-0.048750,-0.006101,0.194251
21.849746,-0.045556,-0.007180,0.194255
21.859756,-0.042363,-0.008253,0.193190
21.869796,-0.051948,-0.005013,0.192111
21.879806,-0.048757,-0.006081,0.189978
21.899856,-0.055150,-0.004987,0.188898
21.899856,-0.055150,-0.004987,0.188898
21.909896,-0.059416,-0.006041,0.188881
21.919937,-0.056225,-0.007110,0.186748
21.929946,-0.055161,-0.006030,0.183552
21.939987,-0.061563,-0.011374,0.188850
21.960037,-0.069017,-0.005985,0.183514
21.980087,-0.074342,-0.008134,0.189898
21.980087,-0.074342,-0.008134,0.189898
21.990127,-0.060503,-0.013513,0.188843
22.000137,-0.058371,-0.015676,0.193111
22.010177,-0.067963,-0.014567,0.190953
22.020187,-0.070086,-0.012435,0.193094
22.030227,-0.061575,-0.018875,0.194155
22.050277,-0.076478,-0.014575,0.198407
22.050277,-0.076478,-0.014575,0.198407
22.060317,-0.071171,-0.017756,0.189861
22.070327,-0.074349,-0.012421,0.193082
22.080367,-0.077552,-0.015624,0.195195
22.090377,-0.067969,-0.017781,0.193075
22.110427,-0.079684,-0.014539,0.193058
22.130508,-0.079670,-0.010273,0.194146
22.130508,-0.079670,-0.010273,0.194146
22.140518,-0.064761,-0.015671,0.196298
22.150558,-0.063684,-0.012476,0.197384
22.160568,-0.073264,-0.010329,0.201641
22.170608,-0.061566,-0.017827,0.198433
22.180618,-0.060493,-0.015700,0.199514
22.210708,-0.070072,-0.014631,0.205902
22.210708,-0.070072,-0.014631,0.205902
22.220748,-0.075407,-0.017828,0.208009
22.230758,-0.066896,-0.024268,0.209070
22.240798,-0.078601,-0.017827,0.210136
22.250808,-0.071155,-0.023191,0.210132
22.270889,-0.078625,-0.025293,0.207965
22.270889,-0.078625,-0.025293,0.207965
22.280898,-0.078630,-0.029585,0.212217
22.290939,-0.077572,-0.030641,0.209010
22.300948,-0.077567,-0.031734,0.214346
22.310989,-0.082896,-0.031717,0.214332
22.320999,-0.074374,-0.032807,0.213282
22.341079,-0.079706,-0.034936,0.215394
22.351089,-0.076499,-0.032821,0.217549
22.361129,-0.065835,-0.031798,0.219720
22.371139,-0.082899,-0.032785,0.214327
22.381179,-0.080756,-0.031749,0.219679
22.391189,-0.071171,-0.034989,0.220758
22.411270,-0.087139,-0.030691,0.226075
22.411270,-0.087139,-0.030691,0.226075
22.421279,-0.069050,-0.037117,0.217549
22.431320,-0.075428,-0.034996,0.225019
22.441329,-0.083950,-0.032827,0.223937
22.451370,-0.070108,-0.037139,0.222887
22.461379,-0.067957,-0.033977,0.230386
22.491503,-0.057309,-0.037210,0.229331
22.491503,-0.057309,-0.037210,0.229331
22.501543,-0.064777,-0.040395,0.230364
22.511553,-0.062648,-0.042548,0.232496
22.521593,-0.050931,-0.042566,0.228256
22.531603,-0.060504,-0.039361,0.234654
22.551683,-0.061574,-0.041499,0.235709
22.551683,-0.061574,-0.041499,0.235709
22.561693,-0.062652,-0.045767,0.235685
22.571733,-0.055190,-0.043640,0.232512
22.581743,-0.062636,-0.040432,0.236779
22.591783,-0.066910,-0.042539,0.233553
22.601793,-0.056254,-0.044720,0.235708
22.631884,-0.057311,-0.042591,0.237852
22.641924,-0.045592,-0.041535,0.232548
22.651934,-0.045574,-0.038362,0.238972
22.661974,-0.045583,-0.040488,0.236826
22.671984,-0.053027,-0.035129,0.237899
22.682024,-0.037048,-0.038390,0.238996
22.692064,-0.038116,-0.039454,0.238988
22.702074,-0.055151,-0.034069,0.241103
22.712114,-0.044509,-0.039438,0.240038
22.722124,-0.041309,-0.038381,0.240052
22.732164,-0.061544,-0.034054,0.242153
22.742174,-0.043448,-0.040505,0.238968
22.762255,-0.056230,-0.039411,0.242143
22.772264,-0.056225,-0.038348,0.243216
22.782305,-0.054104,-0.042631,0.244270
22.792314,-0.061556,-0.037247,0.240002
22.802355,-0.060484,-0.038349,0.246409
22.812365,-0.058349,-0.037288,0.246420
22.822405,-0.063680,-0.037266,0.245337
22.832445,-0.061554,-0.040486,0.247464
22.842455,-0.054092,-0.039438,0.246421
22.852495,-0.058353,-0.041585,0.251740
22.862505,-0.065816,-0.039400,0.246389
22.872545,-0.063679,-0.039422,0.249599
22.882555,-0.058364,-0.042628,0.246394
22.902636,-0.071147,-0.042606,0.250632
22.912645,-0.065835,-0.043646,0.241028
22.922686,-0.074334,-0.038319,0.249575
22.932695,-0.073290,-0.042564,0.243149
22.942736,-0.079679,-0.040407,0.243141
22.952745,-0.086072,-0.039314,0.242061
22.972826,-0.096731,-0.037123,0.237769
22.982836,-0.091419,-0.040319,0.232427
22.992876,-0.096737,-0.038181,0.235627
23.002886,-0.096750,-0.042447,0.234539
23.012926,-0.095667,-0.034965,0.232441
23.022936,-0.093556,-0.041370,0.230280
23.032976,-0.090350,-0.039254,0.232435
23.043016,-0.082891,-0.039273,0.231387
23.053026,-0.080753,-0.038222,0.233535
23.063066,-0.078630,-0.041433,0.233525
23.073076,-0.067969,-0.041478,0.235691
23.083116,-0.082883,-0.038221,0.234597
23.093126,-0.080741,-0.036107,0.237818
23.113207,-0.076461,-0.032942,0.243185
23.123217,-0.070069,-0.034031,0.243198
23.133257,-0.063676,-0.034047,0.242147
23.143267,-0.078576,-0.028679,0.246404
23.153307,-0.064736,-0.032985,0.244286
23.163317,-0.067927,-0.029761,0.242156
23.173357,-0.078564,-0.024407,0.246425
23.183397,-0.067918,-0.027635,0.244302
23.193407,-0.071105,-0.026582,0.249640
23.203447,-0.071098,-0.023373,0.248587
23.213457,-0.066839,-0.025528,0.249656
23.223497,-0.061510,-0.024468,0.247540
23.233507,-0.065757,-0.020197,0.250753
23.243547,-0.063622,-0.019136,0.250764
23.253588,-0.054043,-0.024512,0.251833
23.263597,-0.048720,-0.025587,0.249706
23.273638,-0.055110,-0.024503,0.250762
23.283648,-0.052973,-0.021297,0.248647
23.293688,-0.039134,-0.026676,0.247591
23.303698,-0.054033,-0.020235,0.250785
23.323778,-0.055119,-0.026629,0.248615
23.333788,-0.055122,-0.024468,0.243285
23.343828,-0.055130,-0.029828,0.247532
23.353838,-0.062585,-0.027668,0.247522
23.363878,-0.055123,-0.026619,0.246479
23.373888,-0.052999,-0.028757,0.245407
23.383928,-0.065784,-0.026574,0.244313
23.393969,-0.054074,-0.029801,0.241126
23.403978,-0.057262,-0.028743,0.245395
23.414019,-0.055132,-0.026589,0.240070
23.424028,-0.062587,-0.025507,0.242191
23.434069,-0.068976,-0.023350,0.242183
23.444078,-0.057258,-0.025524,0.242205
23.464159,-0.078555,-0.017974,0.241114
23.474169,-0.066837,-0.019070,0.239005
23.484240,-0.084938,-0.013682,0.241117
23.494250,-0.080683,-0.013670,0.235787
23.504290,-0.068950,-0.011583,0.237966
23.514300,-0.076403,-0.009428,0.239024
23.524340,-0.073216,-0.012637,0.237949
23.534380,-0.065749,-0.012681,0.242243
23.544390,-0.069985,-0.005212,0.246539
23.554430,-0.061475,-0.010574,0.245469
23.564440,-0.062530,-0.009528,0.250812
23.574481,-0.065724,-0.008450,0.250809
23.584490,-0.056146,-0.012748,0.249746
23.594531,-0.066793,-0.008436,0.248669
23.604540,-0.063591,-0.009540,0.254014
23.614581,-0.059337,-0.011680,0.251879
23.624621,-0.066789,-0.008452,0.251874
23.634631,-0.072125,-0.010565,0.250781
23.644671,-0.064663,-0.009516,0.249738
23.654681,-0.072107,-0.007392,0.257205
23.664721,-0.073179,-0.005212,0.248667
23.674731,-0.066774,-0.004190,0.254030
23.684771,-0.064656,-0.007385,0.250817
23.694811,-0.064655,-0.004156,0.245491
23.704821,-0.057184,-0.005289,0.254052
23.714861,-0.050801,-0.005274,0.246592
23.724871,-0.055046,-0.001009,0.250873
23.754961,-0.042265,-0.004254,0.250893
23.765002,-0.030540,-0.004298,0.251994
23.775012,-0.029491,-0.006401,0.244509
23.785052,-0.038009,-0.007477,0.251958
23.795062,-0.026299,-0.009626,0.246639
23.805102,-0.031627,-0.008535,0.245561
23.815112,-0.044418,-0.009567,0.246589
23.825152,-0.030574,-0.008498,0.237019
23.835192,-0.043350,-0.009575,0.247660
23.845202,-0.047631,-0.010584,0.238030
23.855242,-0.048676,-0.005261,0.242325
23.865252,-0.048679,-0.006329,0.242320
23.885302,-0.057199,-0.004165,0.242307
23.885302,-0.057199,-0.004165,0.242307
23.895342,-0.054009,-0.002000,0.233780
23.905383,-0.055071,-0.004162,0.240176
23.915392,-0.065732,-0.003039,0.235879
23.925433,-0.054008,-0.003078,0.235911
23.935442,-0.049746,-0.006320,0.241249
23.955492,-0.049744,-0.006326,0.242317
23.965533,-0.050816,-0.007380,0.240173
23.975573,-0.048683,-0.008470,0.243378
23.985583,-0.046551,-0.008477,0.243384
23.995623,-0.046556,-0.009540,0.242311
24.005633,-0.049745,-0.010633,0.249774
24.025683,-0.054019,-0.011661,0.244416
24.035723,-0.054019,-0.012739,0.246548
24.045763,-0.048704,-0.014867,0.241211
24.055773,-0.068934,-0.011633,0.248648
24.065814,-0.066821,-0.014814,0.242230
24.075823,-0.047645,-0.018080,0.242267
24.085864,-0.065737,-0.009488,0.244394
24.095873,-0.061495,-0.014821,0.240108
24.105914,-0.045496,-0.011679,0.242303
24.115954,-0.058271,-0.006298,0.242294
24.125964,-0.048705,-0.013784,0.238012
24.136004,-0.058269,-0.006303,0.243362
24.146014,-0.034842,-0.009547,0.235934
24.166064,-0.052947,-0.005222,0.236972
24.176104,-0.041226,-0.006328,0.236999
24.186144,-0.051875,-0.004168,0.239117
24.196154,-0.046553,-0.002009,0.230596
24.206194,-0.055068,-0.003094,0.240181
24.216204,-0.048696,-0.005195,0.228439
24.226244,-0.055079,-0.004137,0.234835
24.236254,-0.059343,-0.004118,0.233755
24.246294,-0.051891,-0.004117,0.228435
24.256335,-0.064666,0.000186,0.230556
24.266345,-0.070017,-0.005111,0.225175
24.276385,-0.067872,-0.001929,0.228401
24.286395,-0.071085,-0.004024,0.221973
24.306445,-0.076405,-0.001881,0.224105
24.316485,-0.074269,-0.000825,0.225184
24.326525,-0.081729,0.000277,0.223032
24.336535,-0.061500,-0.007264,0.223052
24.346575,-0.088119,-0.000795,0.228350
24.356585,-0.071081,-0.001883,0.220915
24.366625,-0.062549,-0.003004,0.226274
24.376635,-0.081716,0.002388,0.228383
24.386675,-0.061487,-0.002998,0.224141
24.396716,-0.075323,-0.000857,0.232658
24.406725,-0.071077,-0.001894,0.223051
24.416766,-0.071068,-0.003002,0.231592
24.426775,-0.076382,0.002355,0.231602
24.446825,-0.076386,0.000214,0.232660
24.456866,-0.082787,0.000255,0.228370
24.466906,-0.079594,-0.000818,0.227306
24.476916,-0.077451,0.002369,0.229463
24.486983,-0.083847,0.003472,0.226246
24.496993,-0.082780,0.002386,0.229448
24.507033,-0.079589,0.001318,0.227316
24.517043,-0.081720,0.002403,0.225179
24.527083,-0.074249,0.003421,0.230545
24.537123,-0.068937,0.001303,0.223072
24.547133,-0.077464,-0.000820,0.226243
24.557174,-0.075329,0.001314,0.225191
24.567183,-0.070004,0.000234,0.224132
24.587233,-0.063624,-0.005127,0.224125
24.597274,-0.069989,0.004495,0.226289
24.607314,-0.056172,-0.007277,0.221999
24.617324,-0.062552,-0.004072,0.226269
24.627364,-0.058294,-0.002993,0.220945
24.637374,-0.051903,-0.006233,0.224152
24.657424,-0.048709,-0.005155,0.219893
24.667464,-0.049761,-0.003041,0.225241
24.677504,-0.056156,-0.003020,0.225224
24.687514,-0.049763,-0.000880,0.219910
24.697554,-0.047629,-0.000897,0.222053
24.707564,-0.052965,-0.003010,0.220960
24.717604,-0.045493,0.002315,0.218869
24.727614,-0.050812,0.002302,0.225263
24.737654,-0.049768,-0.003021,0.220968
24.747695,-0.059328,0.005529,0.226323
24.757705,-0.041232,0.000156,0.221007
24.767745,-0.056141,0.000164,0.229511
24.777755,-0.051874,0.004447,0.224202
24.807845,-0.052947,0.001241,0.225253
24.817885,-0.041217,0.002261,0.227426
24.827895,-0.052942,0.002304,0.226326
24.837935,-0.050806,0.004438,0.225274
24.847945,-0.046564,-0.003051,0.225250
24.857985,-0.060394,0.004454,0.228452
24.867995,-0.043353,0.001205,0.226347
24.878035,-0.048688,-0.000913,0.226322
24.888076,-0.059350,-0.003020,0.227351
24.898085,-0.044436,-0.006277,0.228445
24.908126,-0.050822,-0.003053,0.228443
24.918135,-0.055091,-0.007331,0.232684
24.928176,-0.036984,-0.010583,0.230582
24.938185,-0.046585,-0.012678,0.228409
24.948226,-0.047654,-0.014820,0.230532
24.958266,-0.035935,-0.015921,0.229491
24.968276,-0.042325,-0.015916,0.232678
24.968276,-0.042325,-0.015916,0.232678
24.978316,-0.045529,-0.018036,0.231591
24.998366,-0.045542,-0.020152,0.227308
25.018416,-0.047688,-0.025484,0.227277
25.028456,-0.043406,-0.019096,0.228387
25.038466,-0.040236,-0.027634,0.225151
25.048507,-0.055138,-0.022261,0.228340
25.048507,-0.055138,-0.022261,0.228340
25.068557,-0.034894,-0.025541,0.230517
25.078566,-0.041292,-0.024432,0.226232
25.088607,-0.032764,-0.023387,0.225192
25.098647,-0.033821,-0.022336,0.229467
25.098647,-0.033821,-0.022336,0.229467
25.118697,-0.038089,-0.022307,0.226250
25.118697,-0.038089,-0.022307,0.226250
25.128707,-0.029540,-0.015942,0.229509
25.138747,-0.029557,-0.022350,0.229478
25.168837,-0.037007,-0.020205,0.232673
25.168837,-0.037007,-0.020205,0.232673
25.178847,-0.042334,-0.018041,0.230532
25.188887,-0.042339,-0.020177,0.230522
25.198897,-0.046583,-0.014839,0.233740
25.208937,-0.034889,-0.024478,0.231590
25.228987,-0.043399,-0.020194,0.234791
25.228987,-0.043399,-0.020194,0.234791
25.239028,-0.032728,-0.019191,0.241235
25.249038,-0.042333,-0.021275,0.236926
25.259078,-0.038060,-0.020242,0.241215
25.269088,-0.032737,-0.022395,0.241220
25.279128,-0.035927,-0.019176,0.240158
25.309218,-0.039138,-0.022354,0.236929
25.309218,-0.039138,-0.022354,0.236929
25.319228,-0.050854,-0.023419,0.244370
25.329268,-0.046605,-0.023387,0.234768
25.339278,-0.046597,-0.023413,0.240108
25.349318,-0.056199,-0.027658,0.241130
25.369368,-0.044492,-0.033031,0.240069
25.369368,-0.044492,-0.033031,0.240069
25.379409,-0.065801,-0.029753,0.238957
25.389418,-0.055159,-0.032966,0.233630
25.409468,-0.058367,-0.035076,0.230407
25.409468,-0.058367,-0.035076,0.230407
25.419509,-0.051955,-0.030846,0.234717
25.449599,-0.047706,-0.036199,0.234704
25.449599,-0.047706,-0.036199,0.234704
25.459609,-0.044532,-0.043675,0.232541
25.469649,-0.049839,-0.036187,0.233630
25.479659,-0.039194,-0.041566,0.234702
25.489721,-0.048788,-0.043686,0.237870
25.509771,-0.040260,-0.041563,0.234699
25.509771,-0.040260,-0.041563,0.234699
25.519811,-0.043469,-0.044746,0.232539
25.529821,-0.051979,-0.040462,0.235740
25.539862,-0.053063,-0.044710,0.231444
25.549871,-0.059442,-0.038277,0.230389
25.559912,-0.056247,-0.040433,0.232524
25.590002,-0.065827,-0.033979,0.229323
25.590002,-0.065827,-0.033979,0.229323
25.600012,-0.057306,-0.036143,0.229337
25.610052,-0.074334,-0.028627,0.232530
25.620062,-0.054093,-0.029740,0.228307
25.630102,-0.050885,-0.027630,0.231531
25.650152,-0.060476,-0.026526,0.230441
25.650152,-0.060476,-0.026526,0.230441
25.660192,-0.055138,-0.024417,0.232603
25.670202,-0.053006,-0.024424,0.232608
25.680242,-0.058354,-0.030810,0.231495
25.690252,-0.066856,-0.021165,0.230449
25.700292,-0.054078,-0.024401,0.228333
25.720342,-0.066878,-0.027558,0.227214
25.720342,-0.066878,-0.027558,0.227214
25.730383,-0.061537,-0.025460,0.231512
25.740393,-0.065807,-0.028655,0.232553
25.750433,-0.070071,-0.027563,0.230410
25.760443,-0.073251,-0.024374,0.235757
25.770483,-0.062619,-0.029713,0.228284
25.800573,-0.062618,-0.029718,0.229352
25.800573,-0.062618,-0.029718,0.229352
25.810583,-0.068994,-0.026523,0.235759
25.820623,-0.057294,-0.032949,0.231488
25.830633,-0.064737,-0.028673,0.235761
25.840673,-0.056209,-0.027628,0.234721
25.870764,-0.060477,-0.028677,0.233636
25.870764,-0.060477,-0.028677,0.233636
25.880773,-0.046614,-0.027669,0.236884
25.890814,-0.056206,-0.027638,0.236857
25.900823,-0.062613,-0.030811,0.234688
25.910864,-0.045560,-0.030866,0.234735
25.930914,-0.056226,-0.035114,0.236822
25.930914,-0.056226,-0.035114,0.236822
25.940954,-0.060476,-0.029755,0.235767
25.950964,-0.044507,-0.035136,0.233650
25.961004,-0.054099,-0.037261,0.237886
25.971014,-0.058358,-0.032950,0.232553
25.981054,-0.042366,-0.034096,0.237933
26.001104,-0.056204,-0.028721,0.240057
26.011144,-0.047715,-0.040481,0.236820
26.021154,-0.031716,-0.034105,0.232622
26.031195,-0.049819,-0.033019,0.241122
26.041204,-0.043445,-0.039437,0.238973
26.051245,-0.037045,-0.034088,0.232607
26.071295,-0.040256,-0.039422,0.233641
26.071295,-0.040256,-0.039422,0.233641
26.081304,-0.051954,-0.031924,0.236849
26.091345,-0.047705,-0.034048,0.231509
26.101385,-0.042377,-0.035138,0.232587
26.111395,-0.062605,-0.028680,0.235766
26.121435,-0.050915,-0.036153,0.227218
26.141485,-0.050893,-0.031912,0.233647
26.151495,-0.050911,-0.037241,0.231485
26.161535,-0.060483,-0.029735,0.231494
26.171575,-0.053033,-0.031880,0.228300
26.181585,-0.056239,-0.035073,0.228276
26.191625,-0.061540,-0.026527,0.231507
26.211675,-0.048765,-0.030831,0.229385
26.211675,-0.048765,-0.030831,0.229385
26.221685,-0.070077,-0.028620,0.228269
26.231726,-0.057296,-0.030788,0.226157
26.241766,-0.060482,-0.026506,0.226169
26.251776,-0.061560,-0.028618,0.221883
26.261816,-0.066882,-0.030777,0.230404
26.281866,-0.054092,-0.026511,0.222982
26.291876,-0.065827,-0.032901,0.227192
26.301916,-0.066899,-0.031799,0.220785
26.311956,-0.064751,-0.028628,0.226147
26.321966,-0.058373,-0.030749,0.218677
26.332006,-0.069019,-0.028599,0.222931
26.352056,-0.056240,-0.029683,0.217620
26.352056,-0.056240,-0.029683,0.217620
26.362066,-0.064754,-0.028618,0.224010
26.372106,-0.066898,-0.029648,0.217590
26.382147,-0.054095,-0.026501,0.220845
26.392156,-0.062624,-0.028619,0.222948
26.412207,-0.057277,-0.024385,0.227256
26.422247,-0.050908,-0.028632,0.217639
26.432257,-0.062604,-0.021144,0.222984
26.442297,-0.042384,-0.027577,0.214463
26.452337,-0.048775,-0.029722,0.220845
26.462347,-0.059408,-0.020071,0.219793
26.472387,-0.041307,-0.025460,0.217681
26.482422,-0.050903,-0.026496,0.217650
26.502472,-0.042363,-0.023335,0.220893
26.512512,-0.048772,-0.024347,0.213393
26.522553,-0.041315,-0.026512,0.214471
26.532562,-0.051957,-0.022221,0.217667
26.542603,-0.039178,-0.022227,0.210225
26.552612,-0.033857,-0.028683,0.216618
26.572662,-0.037063,-0.026491,0.207006
26.572662,-0.037063,-0.026491,0.207006
26.582703,-0.047699,-0.024371,0.217668
26.592743,-0.036007,-0.025386,0.198468
26.602753,-0.041317,-0.025429,0.211272
26.612793,-0.051988,-0.025354,0.202697
26.622803,-0.044526,-0.024305,0.201654
26.642853,-0.047728,-0.023202,0.196310
26.652893,-0.050918,-0.024295,0.203773
26.662933,-0.050931,-0.026405,0.198422
26.672943,-0.043464,-0.023221,0.197390
26.682983,-0.049838,-0.020031,0.204864
26.692993,-0.038151,-0.026416,0.192048
26.713043,-0.050935,-0.024239,0.192023
26.713043,-0.050935,-0.024239,0.192023
26.723084,-0.043450,-0.018954,0.198478
26.733124,-0.058383,-0.022099,0.196285
26.743134,-0.056255,-0.023174,0.196286
26.753174,-0.050918,-0.021061,0.197379
26.763184,-0.049857,-0.021049,0.194177
26.783234,-0.041328,-0.018931,0.192075
26.793274,-0.063699,-0.017815,0.197359
26.803314,-0.057299,-0.012466,0.190993
26.813324,-0.042372,-0.011457,0.193175
26.823364,-0.057290,-0.009262,0.191008
26.833374,-0.059428,-0.010313,0.188861
26.853424,-0.050899,-0.008195,0.186758
26.853424,-0.050899,-0.008195,0.186758
26.863464,-0.056226,-0.009261,0.189943
26.873505,-0.058375,-0.011354,0.182449
26.883514,-0.058350,-0.003894,0.185689
26.893555,-0.053046,-0.012449,0.184595
26.903565,-0.061581,-0.013469,0.180294
26.923615,-0.053070,-0.017759,0.178161
26.933655,-0.061588,-0.013449,0.176021
26.943695,-0.054128,-0.014546,0.177105
26.953705,-0.052000,-0.015621,0.177106
26.963745,-0.061588,-0.013449,0.176021
26.973755,-0.048818,-0.017737,0.170695
26.993805,-0.055201,-0.014523,0.172829
27.003845,-0.041371,-0.022028,0.169627
27.013886,-0.054137,-0.013443,0.169633
27.023895,-0.049884,-0.015578,0.166430
27.033936,-0.034971,-0.017757,0.165392
27.043945,-0.043482,-0.014546,0.169657
27.053986,-0.042434,-0.017723,0.163236
27.063995,-0.044554,-0.015600,0.167513
27.074036,-0.037110,-0.017725,0.160046
27.084076,-0.032833,-0.015628,0.165408
27.094086,-0.032839,-0.017764,0.165398
27.104126,-0.028579,-0.017768,0.163274
27.114136,-0.028573,-0.015632,0.163284
27.124176,-0.028576,-0.016700,0.163279
27.134186,-0.024316,-0.016703,0.161154
27.144226,-0.017927,-0.019938,0.163293
27.154266,-0.024309,-0.014573,0.162232
27.164276,-0.023262,-0.019900,0.159005
27.174316,-0.037099,-0.015604,0.163260
27.184326,-0.023270,-0.020953,0.155796
27.204376,-0.032858,-0.019859,0.156843
27.214417,-0.038173,-0.015575,0.157916
27.224457,-0.036067,-0.021964,0.152551
27.234467,-0.041377,-0.015545,0.153635
27.244507,-0.050989,-0.020838,0.150379
27.254517,-0.039251,-0.017687,0.153631
27.264557,-0.047791,-0.019770,0.148256
27.274567,-0.053119,-0.019758,0.149310
27.284607,-0.041401,-0.020854,0.147200
27.294647,-0.044599,-0.019765,0.145060
27.304657,-0.049923,-0.019763,0.148250
27.314697,-0.028613,-0.020890,0.146167
27.324707,-0.041394,-0.018723,0.148279
27.344757,-0.036070,-0.018725,0.145089
27.354797,-0.036086,-0.022982,0.141864
27.364838,-0.038209,-0.020849,0.144005
27.374847,-0.037148,-0.020837,0.140803
27.384888,-0.040342,-0.018681,0.138668
27.394898,-0.048872,-0.017565,0.134377
27.404938,-0.045672,-0.016508,0.134391
27.414948,-0.056333,-0.015385,0.130094
27.424988,-0.046745,-0.017557,0.131178
27.435028,-0.049919,-0.010081,0.133341
27.445038,-0.040342,-0.014374,0.131211
27.455078,-0.044585,-0.010114,0.136560
27.465088,-0.029687,-0.014398,0.129104
27.485186,-0.033938,-0.012269,0.133375
27.495226,-0.009438,-0.015537,0.130222
27.505267,-0.029669,-0.010147,0.133397
27.515276,-0.026497,-0.016540,0.128034
27.525317,-0.026491,-0.014404,0.128044
27.535326,-0.035022,-0.015439,0.126948
27.545367,-0.039290,-0.015410,0.123731
27.555376,-0.036097,-0.017561,0.124798
27.565417,-0.033976,-0.018611,0.119458
27.575457,-0.048887,-0.017520,0.124763
27.585467,-0.040389,-0.023919,0.117279
27.595507,-0.036123,-0.022865,0.117295
27.605517,-0.045713,-0.022839,0.118337
27.625567,-0.033999,-0.025003,0.116223
27.635607,-0.037207,-0.024957,0.108737
27.645647,-0.040397,-0.024972,0.114069
27.655657,-0.029755,-0.030341,0.113005
27.665697,-0.031880,-0.024970,0.107683
27.675707,-0.051054,-0.021708,0.108714
27.685748,-0.030817,-0.024963,0.105550
27.695757,-0.037206,-0.023884,0.107674
27.705798,-0.048928,-0.023851,0.108710
27.715838,-0.038287,-0.025986,0.101252
27.725848,-0.042534,-0.022794,0.106596
27.735888,-0.041479,-0.021684,0.096990
27.745898,-0.046802,-0.021687,0.101248
27.765948,-0.036159,-0.023827,0.094858
27.775988,-0.047865,-0.020616,0.101250
27.786028,-0.037215,-0.019547,0.093807
27.796038,-0.030831,-0.025995,0.098067
27.806078,-0.039360,-0.024885,0.094844
27.816088,-0.045747,-0.021655,0.093774
27.826128,-0.035089,-0.021690,0.093803
27.836138,-0.031905,-0.021659,0.085266
27.846178,-0.054274,-0.021627,0.093750
27.856219,-0.040421,-0.018433,0.086326
27.866228,-0.028712,-0.023811,0.086333
27.876269,-0.046814,-0.017339,0.085246
27.886279,-0.037234,-0.018408,0.078858
27.906329,-0.043631,-0.018382,0.077772
27.916369,-0.027659,-0.021618,0.073528
27.926409,-0.035100,-0.018425,0.081000
27.936419,-0.030867,-0.024806,0.072436
27.946459,-0.025519,-0.021650,0.078875
27.956469,-0.032994,-0.023736,0.073503
27.966509,-0.018080,-0.024837,0.070335
27.976519,-0.012750,-0.024860,0.071417
27.986559,-0.024471,-0.022676,0.069259
27.996600,-0.009572,-0.028039,0.063934
28.006609,-0.019144,-0.025917,0.073531
28.016650,-0.013839,-0.028015,0.061786
28.026659,-0.009562,-0.025918,0.067148
28.046709,-0.003188,-0.030180,0.060737
28.056750,-0.008487,-0.023796,0.069298
28.066790,0.000006,-0.029102,0.056478
28.076800,-0.010627,-0.023763,0.063951
28.086840,-0.001050,-0.025900,0.057558
28.096850,0.000002,-0.029092,0.054341
28.116900,-0.007454,-0.026927,0.053263
28.126940,-0.008517,-0.025856,0.053265
28.136980,-0.015991,-0.029020,0.050025
28.146990,-0.012785,-0.024748,0.047917
28.157030,-0.002129,-0.024778,0.046878
28.167040,-0.011725,-0.026888,0.047910
28.177081,-0.017055,-0.024714,0.043633
28.187090,-0.001069,-0.025839,0.044740
28.197131,-0.010654,-0.022599,0.043660
28.207171,-0.003211,-0.027953,0.041519
28.217181,-0.012790,-0.024733,0.044713
28.227221,-0.001091,-0.026847,0.031916
28.237231,-0.015972,-0.020461,0.046860
28.257281,-0.008544,-0.030077,0.042563
28.267321,-0.016011,-0.026803,0.032944
28.277361,-0.018148,-0.028932,0.032928
28.287371,-0.016007,-0.027891,0.037211
28.297411,-0.009637,-0.032143,0.028663
28.307421,-0.023466,-0.027872,0.038259
28.317461,-0.013896,-0.031067,0.029725
28.327471,-0.007499,-0.032170,0.032942
28.337511,-0.018158,-0.032131,0.031844
28.347552,-0.003238,-0.034330,0.035080
28.357561,-0.000048,-0.036471,0.034010
28.367602,-0.005369,-0.033250,0.034011
28.377612,-0.003242,-0.032164,0.028681
28.397662,-0.012821,-0.026788,0.027611
28.407702,-0.025605,-0.025689,0.029718
28.417742,-0.021341,-0.022474,0.024404
28.427752,-0.024542,-0.024604,0.025453
28.437792,-0.037322,-0.021364,0.026501
28.447802,-0.027752,-0.025631,0.019030
28.467852,-0.026675,-0.020285,0.016922
28.477892,-0.017083,-0.021394,0.019079
28.487954,-0.029870,-0.022436,0.022244
28.497963,-0.020280,-0.021384,0.019071
28.508004,-0.012803,-0.016074,0.020185
28.518013,-0.011744,-0.020364,0.023372
28.528054,-0.012801,-0.017157,0.023384
28.538063,-0.001082,-0.019336,0.024474
28.548104,-0.005335,-0.016123,0.025546
28.558144,-0.007469,-0.016106,0.023404
28.568154,0.005321,-0.018304,0.027702
28.578194,-0.000024,-0.020392,0.021268
28.588204,-0.003216,-0.020397,0.024464
28.608254,0.001042,-0.021473,0.023402
28.618294,-0.003229,-0.025741,0.025506
28.628334,-0.009617,-0.022512,0.024436
28.638344,-0.014937,-0.019291,0.024436
28.648384,-0.007484,-0.022524,0.025510
28.658394,-0.002155,-0.021463,0.023393
28.668435,-0.014958,-0.026766,0.024401
28.678444,-0.001096,-0.024675,0.024449
28.688485,-0.004290,-0.021446,0.021251
28.698525,-0.000035,-0.025742,0.023379
28.708535,-0.007496,-0.024639,0.021227
28.718575,0.009563,-0.024715,0.025547
28.718575,0.009563,-0.024715,0.025547
28.728585,0.007428,-0.023620,0.021273
28.758675,0.017019,-0.024724,0.022363
28.768715,0.007457,-0.016170,0.026649
28.768715,0.007457,-0.016170,0.026649
28.778725,0.002109,-0.020404,0.022342
28.788765,0.007441,-0.017197,0.018099
28.798775,0.001052,-0.017197,0.022354
28.828865,-0.013851,-0.009662,0.020212
28.828865,-0.013851,-0.009662,0.020212
28.838906,-0.003244,-0.023540,0.011630
28.848915,-0.006402,-0.015036,0.022344
28.858956,0.002079,-0.024615,0.009503
28.868966,-0.014927,-0.016092,0.025520
28.889016,-0.005355,-0.023599,0.025511
28.889016,-0.005355,-0.023599,0.025511
28.899056,-0.006440,-0.025690,0.016952
28.909096,0.014878,-0.026843,0.020210
28.919106,-0.008562,-0.024636,0.021224
28.929146,-0.000051,-0.026769,0.014828
28.939156,0.007431,-0.023630,0.023409
28.969246,0.003159,-0.026820,0.023383
28.969246,0.003159,-0.026820,0.023383
28.979287,-0.007501,-0.024624,0.018022
28.989296,-0.009611,-0.020376,0.024446
28.999337,-0.007486,-0.020363,0.020179
29.009346,-0.002182,-0.026762,0.014822
29.029396,-0.004320,-0.027813,0.012675
29.029396,-0.004320,-0.027813,0.012675
29.039437,-0.009600,-0.015026,0.022335
29.049477,-0.009618,-0.019278,0.018042
29.059487,-0.010682,-0.019279,0.019107
29.069527,-0.008537,-0.015019,0.020201
29.079537,0.002115,-0.016112,0.018089
29.109627,0.006383,-0.016141,0.021306
29.109627,0.006383,-0.016141,0.021306
29.119667,0.003174,-0.020402,0.021277
29.129677,-0.008550,-0.020364,0.021244
29.139717,0.008501,-0.021493,0.022354
29.149727,0.006355,-0.024669,0.018060
29.179818,0.011672,-0.030036,0.020186
29.179818,0.011672,-0.030036,0.020186
29.189858,-0.010707,-0.027818,0.017998
29.199868,-0.011764,-0.025688,0.020142
29.209908,-0.003263,-0.032098,0.014794
29.219918,-0.009639,-0.029982,0.023332
29.239968,-0.012837,-0.028894,0.021192
29.239968,-0.012837,-0.028894,0.021192
29.250008,-0.009652,-0.029942,0.014787
29.260048,-0.005383,-0.028898,0.016940
29.270058,-0.007517,-0.031037,0.019060
29.280098,-0.002194,-0.029956,0.012671
29.290108,-0.008565,-0.024626,0.019088
29.310158,0.006333,-0.033218,0.019088
29.310158,0.006333,-0.033218,0.019088
29.320198,0.001029,-0.023584,0.018051
29.330239,0.003148,-0.026784,0.015905
29.340249,-0.001097,-0.022519,0.020186
29.350289,0.006350,-0.023576,0.012725
29.360299,-0.001092,-0.022534,0.023391
29.380349,0.007430,-0.020396,0.017015
29.390389,-0.007488,-0.019279,0.016980
29.400429,-0.007493,-0.019264,0.013775
29.410439,-0.003229,-0.020356,0.015918
29.420479,-0.009607,-0.016079,0.019125
29.430489,-0.003253,-0.025665,0.009484
29.450539,-0.006437,-0.021388,0.010563
29.460579,0.001032,-0.023594,0.020187
29.470620,-0.005362,-0.020344,0.014844
29.480629,-0.006428,-0.021419,0.016972
29.490687,0.007414,-0.024652,0.013791
29.500696,-0.004298,-0.021421,0.015910
29.520746,0.006348,-0.025727,0.015919
29.520746,0.006348,-0.025727,0.015919
29.530787,-0.013892,-0.020306,0.012684
29.540827,-0.016025,-0.021372,0.013741
29.550837,0.005262,-0.027814,0.006292
29.560877,-0.013887,-0.020322,0.015889
29.570887,-0.013919,-0.027762,0.008376
29.590937,-0.006442,-0.023529,0.011621
29.600977,-0.007519,-0.027798,0.011598
29.611017,0.005254,-0.033174,0.010540
29.621027,-0.005370,-0.022475,0.013766
29.631068,-0.000067,-0.031026,0.011603
29.641077,-0.001135,-0.031017,0.010532
29.661127,-0.011762,-0.021386,0.013753
29.661127,-0.011762,-0.021386,0.013753
29.671168,0.000996,-0.028868,0.006275
29.681208,-0.005377,-0.026762,0.016950
29.691218,-0.006472,-0.030974,0.005177
29.701258,-0.003250,-0.025676,0.011620
29.711268,-0.000059,-0.027822,0.011619
29.731318,0.001000,-0.031034,0.012675
29.741358,-0.008595,-0.027764,0.005186
29.751398,-0.014992,-0.030967,0.009426
29.761408,-0.005415,-0.033104,0.003033
29.771448,-0.012863,-0.030964,0.007295
29.781458,-0.023519,-0.028783,0.005140
29.801508,-0.016068,-0.032006,0.004077
29.801508,-0.016068,-0.032006,0.004077
29.811548,-0.020317,-0.027731,0.006222
29.821558,-0.000085,-0.032048,0.001985
29.831599,-0.014980,-0.025617,0.007315
29.841639,-0.003287,-0.032022,-0.001229
29.851649,-0.000053,-0.024608,0.009497
29.871699,-0.002184,-0.022450,0.006297
29.871699,-0.002184,-0.022450,0.006297
29.881739,0.018052,-0.027855,0.006327
29.891749,0.006342,-0.023551,0.007384
29.901789,0.005279,-0.022479,0.007386
29.911829,0.024460,-0.024688,0.009565
29.921839,0.003159,-0.018201,0.007400
29.931879,0.007405,-0.022471,0.004187
29.941889,0.004231,-0.017146,0.009545
29.951929,0.001013,-0.019226,-0.000088
29.961939,0.005292,-0.018213,0.008474
29.971979,-0.000048,-0.019238,0.003114
29.982020,-0.003238,-0.017097,0.004183
29.992029,0.005286,-0.018192,0.004201
30.002070,-0.003239,-0.018170,0.005246
30.012079,-0.000050,-0.019233,0.002045
30.022120,0.006363,-0.015002,0.006356
30.032130,-0.002171,-0.016027,0.003123
30.042170,0.008473,-0.021401,0.003127
30.052210,-0.011763,-0.017074,0.005228
30.062220,-0.004306,-0.016010,0.000981
30.082270,-0.012842,-0.021337,0.004136
30.082270,-0.012842,-0.021337,0.004136
30.092310,-0.000063,-0.023499,0.000957
30.102320,-0.000059,-0.021359,-0.000101
30.112360,-0.004320,-0.021350,0.000955
30.122401,-0.004345,-0.028810,-0.002285
30.132410,-0.001123,-0.021360,0.000964
30.152460,0.005262,-0.025658,0.002030
30.162501,-0.004307,-0.017083,0.002044
30.172510,0.004226,-0.017131,0.006340
30.182551,0.008468,-0.022464,0.002054
30.192591,-0.000045,-0.017092,0.000987
30.202601,-0.001108,-0.018177,0.005252
30.222651,-0.001103,-0.016036,0.004194
30.222651,-0.001103,-0.016036,0.004194
30.232691,-0.016035,-0.018108,0.000938
30.242701,-0.006462,-0.024542,-0.000134
30.252741,-0.025617,-0.014878,0.001995
30.262781,-0.008591,-0.021311,-0.004397
30.272791,-0.010703,-0.018135,0.003089
30.302881,-0.001114,-0.018156,0.000979
30.312891,0.003156,-0.014961,-0.000062
30.322932,-0.003246,-0.015993,-0.003289
30.332972,-0.001108,-0.014942,-0.001142
30.342982,-0.013892,-0.012765,-0.001167
30.353022,-0.011766,-0.010601,-0.008628
30.363032,-0.013883,-0.009561,-0.001152
30.373072,-0.011765,-0.012757,-0.004366
30.383082,-0.012836,-0.013816,-0.005442
30.393122,-0.019220,-0.010597,-0.004376
30.403162,-0.005371,-0.010621,-0.008611
30.413172,-0.014949,-0.008480,-0.003286
30.433222,0.002085,-0.011709,-0.009664
30.443262,-0.011751,-0.010646,0.000985
30.453272,-0.002190,-0.015966,-0.009696
30.463312,-0.008553,-0.009584,-0.000069
30.473353,-0.012833,-0.011670,-0.007568
30.483362,0.002092,-0.012807,-0.003259
30.503457,-0.001133,-0.019174,-0.009708
30.513498,-0.012822,-0.011706,-0.000091
30.523508,-0.005387,-0.018112,-0.005442
30.533548,-0.003256,-0.021348,-0.000110
30.543588,-0.009644,-0.017041,-0.003312
30.553598,-0.012842,-0.014874,-0.007583
30.573648,-0.003268,-0.022386,-0.006524
30.583688,-0.021357,-0.014882,-0.000129
30.593698,-0.005384,-0.018122,-0.003305
30.603738,-0.005376,-0.017070,-0.000096
30.613779,-0.018166,-0.014872,-0.004393
30.623788,-0.012844,-0.018098,-0.003326
30.643838,-0.005391,-0.019175,-0.006515
30.643838,-0.005391,-0.019175,-0.006515
30.653879,-0.022425,-0.013795,-0.003332
30.663888,0.001027,-0.011730,-0.004326
30.673929,-0.009637,-0.017061,0.000961
30.683969,-0.008582,-0.015956,-0.007577
30.693979,-0.005354,-0.008521,-0.001123
30.704019,-0.003254,-0.018124,-0.004368
30.714029,-0.021357,-0.013804,-0.002261
30.724069,-0.011786,-0.021310,-0.002270
30.734079,-0.009638,-0.013827,-0.005433
30.744119,-0.010701,-0.012755,-0.005431
30.754159,-0.008578,-0.015966,-0.005440
30.764169,-0.007530,-0.021299,-0.007599
30.784219,-0.002200,-0.021321,-0.006516
30.794259,-0.007518,-0.018105,-0.005447
30.804269,0.002075,-0.018141,-0.004353
30.814310,0.001006,-0.023513,0.003096
30.824350,0.002055,-0.025617,-0.004388
30.834360,0.002064,-0.024569,-0.000111
30.844400,0.003123,-0.028860,0.003077
30.854410,0.009510,-0.028855,-0.002247
30.864450,0.007387,-0.029952,0.005220
30.874460,-0.000087,-0.030965,-0.001215
30.884500,0.004169,-0.032031,-0.004413
30.894540,-0.009656,-0.026697,0.006256
30.904550,0.003096,-0.034159,-0.005494
30.924600,-0.004342,-0.028820,-0.000148
30.934640,0.003109,-0.030970,-0.002274
30.944650,-0.008580,-0.022424,0.005211
30.954690,-0.004345,-0.029888,-0.000153
30.964731,-0.010722,-0.023460,-0.000141
30.974740,-0.013914,-0.019157,-0.004402
30.984781,-0.002201,-0.023472,-0.003322
30.994790,-0.017122,-0.023424,-0.003363
31.004831,-0.011784,-0.019159,-0.005464
31.014841,-0.018169,-0.014862,-0.006530
31.024881,-0.019266,-0.025533,-0.007652
31.034921,-0.024567,-0.016987,-0.004421
31.044931,-0.014985,-0.018061,-0.009741
31.064981,-0.014990,-0.020202,-0.008683
31.075021,-0.024559,-0.013778,-0.005474
31.085031,-0.014975,-0.013784,-0.010789
31.095071,-0.005369,-0.012783,-0.003280
31.105112,-0.018166,-0.014872,-0.004393
31.115121,-0.010712,-0.014876,-0.008646
31.125162,-0.013887,-0.009551,-0.003288
31.135171,-0.018170,-0.015935,-0.005467
31.145212,-0.003246,-0.017071,-0.001158
31.155221,-0.011749,-0.009578,0.000990
31.165262,-0.005373,-0.013846,-0.004353
31.175302,-0.013880,-0.008493,-0.001147
31.185312,-0.016026,-0.014904,0.000953
31.195352,-0.011776,-0.015956,-0.005449
31.205362,-0.030934,-0.009511,-0.000130
31.215402,-0.028809,-0.009498,-0.004397
31.225412,-0.016032,-0.012733,-0.006514
31.235452,-0.037332,-0.009480,-0.002284
31.245492,-0.037343,-0.011601,-0.005499
31.255502,-0.018155,-0.008444,-0.008636
31.275552,-0.021360,-0.013794,-0.004397
31.285592,-0.013885,-0.008478,-0.004351
31.295602,-0.025612,-0.010586,-0.002257
31.305643,-0.012848,-0.017010,-0.007593
31.315683,-0.001120,-0.019214,-0.001162
31.325693,-0.019228,-0.017035,0.002003
31.335733,-0.002209,-0.024525,-0.006531
31.345743,-0.005362,-0.014959,0.005255
31.355783,-0.008594,-0.022379,-0.004402
31.365793,-0.000081,-0.028829,-0.001205
31.375833,-0.011757,-0.012782,0.000975
31.385873,0.007388,-0.023493,-0.005432
31.395883,-0.011761,-0.017079,0.006296
31.425973,-0.005379,-0.018137,-0.000101
31.435983,-0.009630,-0.013852,-0.000092
31.446023,-0.003229,-0.012815,0.002067
31.456064,-0.003252,-0.019207,-0.001168
31.466073,-0.014948,-0.013870,0.007371
31.476114,-0.007493,-0.011723,-0.000076
31.486123,-0.000032,-0.012825,0.002076
31.496170,-0.006434,-0.016013,0.003111
31.506180,0.003158,-0.016044,0.003137
31.516220,-0.005362,-0.014959,0.005255
31.526260,-0.007495,-0.013869,0.002050
31.536270,0.006346,-0.020332,0.004194
31.556320,-0.007517,-0.022417,0.003078
31.566360,-0.001127,-0.022423,-0.000109
31.576370,-0.014969,-0.018111,0.000941
31.586410,-0.013918,-0.023454,0.000919
31.596451,-0.014978,-0.021315,0.000926
31.606460,-0.011776,-0.019185,-0.000123
31.616501,-0.013920,-0.023449,-0.000149
31.626510,-0.019258,-0.025558,-0.002311
31.636551,-0.007521,-0.021329,-0.001190
31.646560,-0.011811,-0.029849,-0.003378
31.656601,-0.030975,-0.025540,0.001930
31.666641,-0.005417,-0.029864,-0.004429
31.676651,0.000985,-0.029910,0.000929
31.686691,-0.016067,-0.025548,-0.006575
31.696701,-0.015004,-0.027697,-0.004445
31.706741,-0.004351,-0.032024,-0.000164
31.716751,-0.008598,-0.025598,-0.001213
31.726791,-0.009662,-0.025599,-0.000148
31.736831,-0.003269,-0.026693,0.000933
31.746841,-0.002205,-0.026691,-0.000132
31.766891,-0.010713,-0.022412,0.004137
31.776931,-0.006467,-0.024526,-0.003339
31.786941,-0.006452,-0.021343,0.000949
31.796982,-0.018173,-0.020237,0.000922
31.807022,-0.024579,-0.020181,-0.006573
31.817032,-0.025612,-0.014893,0.005200
31.827072,-0.008578,-0.015966,-0.005440
31.837082,-0.026676,-0.011666,0.000939
31.847122,-0.035208,-0.013774,0.000906
31.857132,-0.004315,-0.017058,-0.003297
31.867172,-0.009623,-0.011721,0.000986
31.877212,-0.016024,-0.012758,-0.001173
31.887222,-0.007497,-0.012786,-0.001149
31.897262,-0.003223,-0.010679,0.002077
31.907272,-0.000058,-0.019208,-0.003296
31.917312,-0.014954,-0.013850,0.003098
31.927322,-0.010694,-0.013853,0.000973
31.937362,0.005276,-0.019240,-0.000076
31.947403,-0.005377,-0.020299,0.005230
31.957412,-0.006455,-0.020255,-0.003318
31.977462,0.004188,-0.026707,-0.001183
31.987503,0.003150,-0.021404,0.007385
31.997513,-0.009659,-0.025609,0.001989
32.007553,-0.006471,-0.027745,-0.000149
32.017593,-0.016034,-0.021342,0.007332
32.027603,0.008447,-0.028862,-0.000113
32.037643,-0.011784,-0.025623,0.006255
32.047653,-0.006451,-0.023499,0.005212
32.057693,-0.016044,-0.020234,-0.001208
32.067703,-0.012853,-0.026687,0.006248
32.077743,-0.010709,-0.020271,0.003079
32.087784,-0.008570,-0.017069,0.002032
32.097793,-0.006434,-0.020320,0.010568
32.117843,-0.006445,-0.021363,0.005222
32.127884,-0.000027,-0.013918,0.007412
32.137893,0.001046,-0.011791,0.008493
32.147934,-0.003239,-0.019248,0.007377
32.157974,-0.007491,-0.012806,0.003123
32.167984,-0.006422,-0.013898,0.007394
32.178024,-0.016004,-0.009590,0.006320
32.188034,-0.012820,-0.013867,0.005240
32.198074,0.002104,-0.012847,0.005286
32.208084,-0.022398,-0.011725,0.010565
