time_tick,gyr_X_value,gyr_Y_value,gyr_Z_value
-0.001588,-0.009653,-0.023473,0.001999
0.008453,-0.009659,-0.025609,0.001989
0.018462,-0.003259,-0.022416,-0.000115
0.028503,-0.011782,-0.022399,0.001998
0.038512,-0.006462,-0.025620,0.001997
0.048553,-0.007519,-0.022412,0.002010
0.058593,-0.005401,-0.026686,0.000927
0.068603,-0.001118,-0.020297,0.002037
0.078643,-0.008586,-0.023482,0.003070
0.088653,-0.007512,-0.019204,0.000957
0.098693,-0.011780,-0.022404,0.003066
0.108703,-0.005391,-0.022409,-0.000121
0.118743,-0.007510,-0.019209,0.002025
0.128783,-0.007528,-0.025616,0.001994
0.138793,-0.009646,-0.020265,0.000946
0.148834,-0.009652,-0.022400,0.000936
0.158843,-0.003256,-0.022426,0.002021
0.168884,-0.009641,-0.020280,0.004150
0.178893,-0.005381,-0.020283,0.002026
0.188934,-0.008585,-0.022409,0.002007
0.198974,-0.006453,-0.021338,-0.000119
0.208984,-0.009640,-0.018129,0.000956
0.219024,-0.005396,-0.025623,0.002000
0.229034,-0.008577,-0.020278,0.003085
0.239074,-0.011776,-0.020263,0.002008
0.249084,-0.002187,-0.021362,0.002029
0.259124,-0.005380,-0.020288,0.003094
0.269134,-0.005385,-0.020273,-0.000111
0.279174,-0.008596,-0.026681,0.001986
0.289214,-0.008585,-0.021331,-0.000125
0.299224,-0.004311,-0.019224,0.003102
0.309264,-0.003262,-0.024562,0.002011
0.319274,-0.007510,-0.020287,0.004156
0.329314,-0.009648,-0.021338,0.002009
0.339324,-0.005391,-0.022409,-0.000121
0.349365,-0.013906,-0.019183,0.000939
0.359405,-0.006456,-0.023484,0.002007
0.369415,-0.009637,-0.018139,0.003092
0.379455,-0.007522,-0.022402,-0.000127
0.389465,-0.001120,-0.021370,0.003100
0.399505,-0.005389,-0.023492,0.003079
0.409515,-0.010709,-0.020271,0.003079
0.419555,-0.010716,-0.022402,0.002001
0.429565,-0.007512,-0.019204,0.000957
0.439605,-0.005381,-0.021361,0.004157
0.449645,-0.003256,-0.022426,0.002021
0.459655,-0.011769,-0.017054,0.000955
0.469695,-0.011784,-0.022393,0.000930
0.479705,-0.002187,-0.020284,-0.000102
0.489745,-0.010698,-0.017072,0.004163
0.499755,-0.005386,-0.022424,0.003084
0.509795,-0.007509,-0.019214,0.003093
0.519836,-0.008579,-0.019195,-0.000115
0.529845,-0.005379,-0.019216,0.002031
0.539886,-0.005392,-0.023482,0.000942
0.549896,-0.008570,-0.017069,0.002032
0.559936,-0.010716,-0.022402,0.002001
0.569946,-0.004319,-0.021355,0.002023
0.579986,-0.008579,-0.020273,0.002017
0.589996,-0.004327,-0.024559,0.002008
0.600036,-0.008571,-0.018142,0.003095
0.610076,-0.011788,-0.024534,0.001988
0.620086,-0.005381,-0.020283,0.002026
0.630126,-0.008577,-0.020278,0.003085
0.640136,-0.004323,-0.023496,0.003082
0.650190,-0.010707,-0.020276,0.004147
0.660200,-0.006444,-0.019212,0.002028
0.670240,-0.003253,-0.021358,0.002026
0.680281,-0.009645,-0.020270,0.002014
0.690290,-0.007511,-0.020282,0.003088
0.700331,-0.008588,-0.023477,0.002002
0.710340,-0.004314,-0.019214,0.000965
0.720381,-0.010708,-0.019198,0.002016
0.730390,-0.003251,-0.021363,0.003095
0.740431,-0.011773,-0.020273,0.004144
0.750471,-0.005381,-0.020283,0.002026
0.760481,-0.001121,-0.021365,0.002032
0.770521,-0.000051,-0.021384,0.005240
0.780531,-0.005373,-0.017080,0.002041
0.790571,-0.011775,-0.020268,0.003076
0.800581,-0.007518,-0.021339,0.000946
0.810621,-0.006441,-0.018144,0.002033
0.820631,-0.006446,-0.020285,0.003091
0.830671,-0.005387,-0.022419,0.002015
0.840712,-0.006447,-0.020280,0.002023
0.850721,-0.007503,-0.017078,0.003103
0.860762,-0.002194,-0.024571,0.003082
0.870771,-0.005377,-0.019221,0.003099
0.880812,-0.005387,-0.022419,0.002015
0.890821,-0.006447,-0.020280,0.002023
0.900862,-0.006444,-0.019212,0.002028
0.910902,-0.002194,-0.023493,0.000951
0.920912,-0.009639,-0.018134,0.002024
0.930952,-0.011779,-0.020253,-0.000128
0.940962,-0.004314,-0.020292,0.003097
0.951002,-0.006444,-0.019212,0.002028
0.961012,-0.006453,-0.022416,0.002013
0.971052,-0.007523,-0.023475,0.000936
0.981062,-0.010700,-0.017067,0.003094
0.991102,-0.006453,-0.021338,-0.000119
1.001142,-0.008575,-0.018132,0.000959
1.011152,-0.009648,-0.021338,0.002009
1.021192,-0.007521,-0.022407,0.000941
1.031202,-0.006441,-0.018144,0.002033
1.041243,-0.005379,-0.019216,0.002031
1.051252,-0.006456,-0.023484,0.002007
1.051252,-0.006456,-0.023484,0.002007
1.071333,-0.010710,-0.020266,0.002011
1.081343,-0.002188,-0.022435,0.003092
1.091383,-0.005381,-0.020283,0.002026
1.101393,-0.004314,-0.020292,0.003097
1.111433,-0.008585,-0.022409,0.002007
1.121443,-0.010703,-0.018135,0.003089
1.131483,-0.004319,-0.020277,-0.000108
1.141523,-0.008579,-0.020273,0.002017
1.151533,-0.006438,-0.018154,0.004169
1.161573,-0.008583,-0.022414,0.003075
1.171583,-0.004320,-0.021350,0.000955
1.181623,-0.007507,-0.018141,0.002030
1.191633,-0.008595,-0.025608,0.000923
1.201673,-0.010705,-0.018130,0.002021
1.211683,-0.008586,-0.022404,0.000938
1.221723,-0.001126,-0.022428,0.000959
1.231764,-0.005392,-0.023482,0.000942
1.241774,-0.008586,-0.022404,0.000938
1.251814,-0.007521,-0.021329,-0.001190
1.261824,-0.002172,-0.016022,0.002055
1.271864,-0.003253,-0.021358,0.002026
1.281874,-0.003260,-0.023489,0.000948
1.291914,-0.005386,-0.022424,0.003084
1.301954,-0.004327,-0.024559,0.002008
1.311964,-0.002178,-0.018158,0.002045
1.322004,-0.007513,-0.020277,0.002020
1.332014,-0.002189,-0.021357,0.000961
1.342054,-0.003253,-0.021358,0.002026
1.352064,-0.006441,-0.018144,0.002033
1.362104,-0.003249,-0.019217,0.000968
1.372114,-0.007516,-0.021344,0.002015
1.382154,-0.008579,-0.020273,0.002017
1.392195,-0.005390,-0.023487,0.002010
1.402204,-0.009643,-0.019197,0.000951
1.412245,-0.005380,-0.020288,0.003094
1.432295,-0.011766,-0.017064,0.003091
1.442305,-0.012836,-0.018123,0.002015
1.452345,-0.003250,-0.020290,0.002031
1.462385,-0.007513,-0.020277,0.002020
1.472395,-0.004320,-0.022428,0.003087
1.482435,-0.009650,-0.022405,0.002004
1.492445,-0.007510,-0.019209,0.002025
1.502485,-0.008578,-0.019200,0.000954
1.512495,-0.007526,-0.024543,0.000931
1.522535,-0.007504,-0.017073,0.002035
1.532545,-0.009643,-0.020275,0.003082
1.542585,-0.005380,-0.019210,0.000962
1.552626,-0.008578,-0.019200,0.000954
1.562635,-0.010717,-0.021324,-0.000130
1.572676,-0.008574,-0.019210,0.003090
1.582685,-0.009648,-0.021338,0.002009
1.592726,-0.004317,-0.020282,0.000960
1.602735,-0.005383,-0.020278,0.000957
1.612776,-0.008580,-0.021346,0.003080
1.622816,-0.014972,-0.019179,0.000936
1.632826,-0.005384,-0.021351,0.002021
1.642894,-0.009636,-0.017066,0.002029
1.652904,-0.004320,-0.022428,0.003087
1.662944,-0.004320,-0.022428,0.003087
1.672954,-0.010712,-0.020261,0.000943
1.682994,-0.003246,-0.018149,0.000973
1.693034,-0.011770,-0.018127,0.002018
1.703044,-0.008570,-0.017069,0.002032
1.713084,-0.005394,-0.025628,0.003068
1.723094,-0.006438,-0.017076,0.002038
1.733135,-0.003254,-0.021353,0.000958
1.743144,-0.008577,-0.020278,0.003085
1.753185,-0.011767,-0.017059,0.002023
1.763194,-0.008577,-0.020278,0.003085
1.773235,-0.003251,-0.020285,0.000963
1.783275,-0.007504,-0.017073,0.002035
1.793285,-0.002199,-0.025633,0.002009
1.793285,-0.002199,-0.025633,0.002009
1.813335,-0.009645,-0.020270,0.002014
1.823375,-0.003256,-0.022426,0.002021
1.833385,-0.007516,-0.021344,0.002015
1.843425,-0.007516,-0.021344,0.002015
1.843425,-0.005383,-0.021356,0.003089
1.863475,-0.007509,-0.019214,0.003093
1.873515,-0.007506,-0.018146,0.003098
1.873515,-0.007506,-0.018146,0.003098
1.893565,-0.007513,-0.020277,0.002020
1.893565,-0.007513,-0.020277,0.002020
1.903575,-0.009648,-0.021338,0.002009
1.923625,-0.009634,-0.017071,0.003097
1.933666,-0.008579,-0.020273,0.002017
1.933666,-0.008579,-0.020273,0.002017
1.943706,-0.008577,-0.020278,0.003085
1.953716,-0.007503,-0.017078,0.003103
1.973766,-0.003253,-0.021358,0.002026
1.973766,-0.003253,-0.021358,0.002026
1.993816,-0.011766,-0.018142,0.005223
1.993816,-0.011766,-0.018142,0.005223
2.003856,-0.004316,-0.020287,0.002029
2.013896,-0.008563,-0.014938,0.003110
2.023906,-0.005386,-0.022424,0.003084
2.033946,-0.006449,-0.021353,0.003086
2.043956,-0.014969,-0.019189,0.003072
2.064006,-0.009642,-0.019202,0.002019
2.064006,-0.009642,-0.019202,0.002019
2.074046,-0.011778,-0.020258,0.000940
2.094096,-0.007506,-0.017068,0.000967
2.094096,-0.007506,-0.017068,0.000967
2.104137,-0.006440,-0.018149,0.003101
2.124187,-0.011767,-0.017059,0.002023
2.134197,-0.008576,-0.019205,0.002022
2.134197,-0.008576,-0.019205,0.002022
2.144237,-0.000050,-0.019233,0.002045
2.154247,-0.002175,-0.017090,0.002050
2.174327,-0.004313,-0.019219,0.002034
2.174327,-0.004313,-0.019219,0.002034
2.194377,-0.002180,-0.018153,0.000976
2.194377,-0.002180,-0.018153,0.000976
2.204387,-0.005374,-0.018153,0.003104
2.214427,-0.002190,-0.022430,0.002024
2.224437,-0.008570,-0.018147,0.004163
2.234477,-0.003247,-0.020300,0.004168
2.244518,-0.006440,-0.018149,0.003101
2.254527,-0.007510,-0.020287,0.004156
2.264568,-0.002182,-0.021377,0.005234
2.274577,-0.006452,-0.022421,0.003081
2.284618,-0.003250,-0.020290,0.002031
2.294627,-0.006444,-0.021368,0.006290
2.304668,-0.006453,-0.023494,0.004144
2.324718,-0.008576,-0.020283,0.004153
2.324718,-0.008576,-0.020283,0.004153
2.334758,-0.002178,-0.018158,0.002045
2.354808,-0.001120,-0.021370,0.003100
2.354808,-0.001120,-0.021370,0.003100
2.364818,-0.006444,-0.020290,0.004159
2.374858,-0.002181,-0.020304,0.004171
2.384868,-0.003239,-0.017092,0.003115
2.394908,-0.005375,-0.019226,0.004167
2.404949,-0.005386,-0.022424,0.003084
2.414958,-0.007504,-0.018151,0.004166
2.424999,-0.004310,-0.018151,0.002039
2.435008,-0.009631,-0.016003,0.003102
2.445049,-0.009637,-0.018139,0.003092
2.455058,-0.005372,-0.018158,0.004172
2.465099,-0.005376,-0.018148,0.002036
2.475108,-0.001111,-0.018166,0.003116
2.485149,-0.007511,-0.020282,0.003088
2.495189,-0.006440,-0.018149,0.003101
2.505199,-0.006441,-0.019222,0.004164
2.515239,-0.005383,-0.021356,0.003089
2.525249,-0.001118,-0.020297,0.002037
2.535289,-0.004312,-0.020297,0.004165
2.545299,-0.003242,-0.019238,0.005241
2.565379,-0.002181,-0.019226,0.002039
2.565379,-0.002181,-0.019226,0.002039
2.575389,-0.003251,-0.021363,0.003095
2.585429,-0.003248,-0.020295,0.003100
2.595439,-0.006452,-0.022421,0.003081
2.605480,-0.007507,-0.018141,0.002030
2.615489,-0.003242,-0.018160,0.003110
2.625530,-0.007510,-0.020287,0.004156
2.635570,-0.005379,-0.019216,0.002031
2.645604,-0.009642,-0.019202,0.002019
2.655644,-0.008576,-0.019205,0.002022
2.665654,-0.007504,-0.017073,0.002035
2.675694,-0.013903,-0.019193,0.003075
2.685704,-0.006441,-0.018144,0.002033
2.695744,-0.005380,-0.020288,0.003094
2.705754,-0.003249,-0.019217,0.000968
2.715794,-0.005377,-0.019221,0.003099
2.725834,-0.005381,-0.020283,0.002026
2.735844,-0.007507,-0.019219,0.004161
2.745884,-0.004316,-0.020287,0.002029
2.755894,-0.003238,-0.016019,0.002052
2.765934,-0.006441,-0.019222,0.004164
2.775944,-0.005372,-0.018158,0.004172
2.785984,-0.012838,-0.019196,0.003078
2.796025,-0.007506,-0.018146,0.003098
2.806035,-0.010694,-0.014932,0.003104
2.816075,-0.009639,-0.019212,0.004155
2.826085,-0.007508,-0.020292,0.005224
2.846135,-0.005375,-0.019226,0.004167
2.846135,-0.005375,-0.019226,0.004167
2.856175,-0.006440,-0.019227,0.005232
2.866185,-0.007507,-0.019219,0.004161
2.876225,-0.007513,-0.021355,0.004151
2.886265,-0.003247,-0.020300,0.004168
2.896275,-0.002176,-0.019241,0.005244
2.906315,-0.004315,-0.022443,0.006291
2.916325,-0.004311,-0.020302,0.005233
2.926365,-0.005374,-0.019231,0.005235
2.936375,-0.003253,-0.022436,0.004158
2.946415,-0.005373,-0.020309,0.007367
2.956456,-0.005380,-0.021367,0.005225
2.966465,-0.005374,-0.019231,0.005235
2.976506,-0.011772,-0.019200,0.003081
2.986515,-0.003245,-0.020306,0.005236
2.996556,-0.007505,-0.019224,0.005229
3.006566,-0.009636,-0.018144,0.004160
3.016606,-0.007514,-0.022428,0.005214
3.026616,-0.005377,-0.019221,0.003099
3.036656,-0.006443,-0.019217,0.003096
3.046696,-0.008582,-0.021341,0.002012
3.056706,-0.008576,-0.019205,0.002022
3.066746,-0.003251,-0.021363,0.003095
3.076756,-0.004310,-0.018151,0.002039
3.086796,-0.002181,-0.019226,0.002039
3.096806,-0.006449,-0.020275,0.000954
3.106846,-0.003248,-0.020295,0.003100
3.116887,-0.005380,-0.019210,0.000962
3.126896,-0.002181,-0.019226,0.002039
3.136937,-0.005379,-0.019216,0.002031
3.146946,-0.005377,-0.019221,0.003099
3.156987,-0.006444,-0.019212,0.002028
3.166996,-0.005377,-0.018143,0.000968
3.177037,-0.006435,-0.017086,0.004174
3.197087,-0.008576,-0.020283,0.004153
3.197087,-0.008576,-0.020283,0.004153
3.207127,-0.008564,-0.016011,0.004173
3.217137,-0.006435,-0.017086,0.004174
3.227177,-0.009636,-0.018144,0.004160
3.237187,-0.009631,-0.018159,0.007365
3.247227,-0.008570,-0.019225,0.006295
3.257237,-0.006429,-0.016029,0.006316
3.267277,-0.005365,-0.017105,0.007382
3.277317,-0.003237,-0.019253,0.008446
3.287327,-0.009622,-0.016033,0.009511
3.297368,-0.009634,-0.018149,0.005229
3.307377,-0.009625,-0.016023,0.007375
3.317418,-0.009622,-0.014955,0.007380
3.337468,-0.009640,-0.021363,0.007350
3.337468,-0.009640,-0.021363,0.007350
3.347508,-0.008570,-0.019225,0.006295
3.357518,-0.007497,-0.016020,0.005245
3.367558,-0.009634,-0.019227,0.007360
3.377568,-0.007505,-0.020302,0.007361
3.387608,-0.009637,-0.020295,0.007355
3.397618,-0.005371,-0.018163,0.005240
3.407658,-0.002173,-0.019251,0.007380
3.417668,-0.012831,-0.018139,0.005220
3.427708,-0.003241,-0.019243,0.006309
3.437748,-0.005365,-0.016027,0.005250
3.447758,-0.004298,-0.016035,0.006322
3.457798,-0.003246,-0.021379,0.006299
3.467808,-0.005368,-0.018173,0.007377
3.477848,-0.002182,-0.021377,0.005234
3.487858,0.002091,-0.018192,0.006329
3.497899,-0.005372,-0.018158,0.004172
3.507939,-0.003243,-0.020311,0.006304
3.517949,-0.006438,-0.018154,0.004169
3.527989,-0.001108,-0.018177,0.005252
3.537999,-0.006425,-0.013888,0.005258
3.548039,-0.007507,-0.019219,0.004161
3.558049,-0.005365,-0.016027,0.005250
3.568089,-0.001106,-0.018182,0.006320
3.578099,-0.004286,-0.011764,0.006342
3.588139,-0.000054,-0.022452,0.005235
3.598179,-0.005355,-0.012828,0.006334
3.608189,0.004218,-0.019262,0.005262
3.618229,-0.004293,-0.014973,0.007395
3.628239,0.003145,-0.021389,0.004180
3.638279,0.001040,-0.013927,0.008483
3.648296,-0.005361,-0.013886,0.004192
3.658336,-0.007494,-0.014952,0.005250
3.668377,-0.004295,-0.013889,0.004195
3.678386,-0.003238,-0.018175,0.006314
3.688427,-0.011748,-0.011734,0.005253
3.698437,-0.007504,-0.019229,0.006298
3.708477,-0.004287,-0.011759,0.005274
3.718487,-0.009619,-0.012809,0.005254
3.728527,-0.006434,-0.017091,0.005242
3.738537,-0.009608,-0.008538,0.005274
3.748577,-0.005365,-0.017105,0.007382
3.758617,-0.005356,-0.012823,0.005266
3.768627,-0.008552,-0.012818,0.006325
3.778667,-0.005368,-0.018173,0.007377
3.788677,-0.010666,-0.006403,0.006350
3.798717,-0.008556,-0.014959,0.007383
3.808727,-0.002158,-0.014990,0.009537
3.818767,-0.012800,-0.007464,0.006339
3.828808,-0.004300,-0.018181,0.008448
3.838817,-0.009607,-0.010694,0.009537
3.848858,-0.015993,-0.006391,0.007403
3.858867,-0.005361,-0.017115,0.009518
3.868908,-0.024515,-0.004222,0.006322
3.878917,-0.011770,-0.020283,0.006281
3.898998,-0.010670,-0.008544,0.007408
3.898998,-0.010670,-0.008544,0.007408
3.909008,-0.012815,-0.013882,0.008445
3.919048,0.001029,-0.018199,0.008462
3.929058,-0.005347,-0.011775,0.009543
3.939098,-0.006424,-0.016044,0.009520
3.949108,-0.005355,-0.012828,0.006334
3.959148,-0.010688,-0.016030,0.009509
3.969158,-0.006419,-0.012830,0.007399
3.979198,-0.001091,-0.012842,0.006346
3.989239,-0.001105,-0.020338,0.010583
3.999248,-0.007486,-0.013899,0.008459
4.009289,-0.002156,-0.012844,0.007411
4.019298,-0.008574,-0.021366,0.007353
4.029339,-0.004299,-0.017108,0.007385
4.039348,-0.000027,-0.014997,0.009543
4.049389,-0.006435,-0.019242,0.008437
4.059429,-0.001107,-0.020333,0.009515
4.069439,-0.001099,-0.016051,0.007399
4.079479,-0.009628,-0.018169,0.009501
4.089489,0.003144,-0.023540,0.007375
4.099529,-0.005353,-0.013911,0.009533
4.109539,-0.007499,-0.018166,0.007371
4.119579,0.002092,-0.019270,0.008460
4.129589,-0.006435,-0.019242,0.008437
4.139629,-0.009623,-0.016028,0.008443
4.149669,-0.006429,-0.017107,0.008447
4.159679,-0.005372,-0.020314,0.008435
4.169719,-0.006432,-0.018174,0.008442
4.179729,-0.000031,-0.017137,0.010601
4.189770,-0.009638,-0.020290,0.006287
4.199779,-0.001101,-0.018197,0.009525
4.209820,-0.012815,-0.014960,0.010576
4.219860,-0.007492,-0.016035,0.008449
4.229870,-0.010668,-0.010705,0.012738
4.239910,-0.007511,-0.023516,0.009482
4.249920,-0.002163,-0.016052,0.008464
4.259960,-0.007474,-0.011784,0.012742
4.269970,-0.014949,-0.016021,0.010565
4.280010,-0.005366,-0.018178,0.008445
4.290020,-0.008550,-0.014979,0.011656
4.300060,-0.005367,-0.019251,0.009508
4.310100,0.002123,-0.009674,0.011710
4.320110,-0.013897,-0.020291,0.009480
4.330150,-0.002158,-0.014990,0.009537
4.340160,-0.006409,-0.012860,0.013808
4.350200,-0.006438,-0.020310,0.008432
4.360210,-0.009592,-0.005354,0.009562
4.370250,-0.010692,-0.017093,0.008435
4.380291,-0.006423,-0.016049,0.010588
4.390301,-0.002158,-0.014990,0.009537
4.400341,-0.007478,-0.011769,0.009538
4.410351,-0.006418,-0.013908,0.009530
4.420391,-0.009612,-0.011757,0.008464
4.430401,-0.007485,-0.012826,0.007396
4.440441,-0.010691,-0.016020,0.007372
4.450451,-0.009616,-0.012819,0.007390
4.460491,-0.011734,-0.008546,0.008473
4.470531,-0.010691,-0.016020,0.007372
4.480541,-0.005349,-0.010692,0.006344
4.490581,-0.016002,-0.011751,0.011651
4.500591,-0.010688,-0.013874,0.005246
4.510631,-0.013867,-0.010690,0.011661
4.520641,-0.011754,-0.014948,0.007374
4.530681,-0.007474,-0.010706,0.010611
4.540722,-0.012820,-0.017096,0.010566
4.550731,-0.007474,-0.009628,0.008480
4.560772,-0.013886,-0.017092,0.010563
4.570782,-0.008552,-0.013896,0.008456
4.580822,-0.012810,-0.012819,0.009518
4.590832,-0.017071,-0.011737,0.009511
4.600872,-0.008551,-0.016052,0.012719
4.610882,-0.011743,-0.012828,0.010589
4.620922,-0.007479,-0.013920,0.012732
4.630962,-0.012828,-0.020305,0.011619
4.640972,-0.010674,-0.012841,0.012728
4.651033,-0.004300,-0.020337,0.012710
4.661043,-0.010674,-0.013919,0.014860
4.671083,-0.006424,-0.017122,0.011652
4.681093,-0.012806,-0.012834,0.012722
4.691133,-0.003244,-0.023540,0.011630
4.701174,-0.008551,-0.014974,0.010588
4.711183,-0.012823,-0.020320,0.014823
4.721224,-0.012836,-0.023509,0.011604
4.731233,-0.011750,-0.017115,0.013773
4.741274,-0.007502,-0.021390,0.011628
4.751283,-0.014961,-0.021371,0.012676
4.761324,-0.008572,-0.022449,0.010552
4.771364,-0.012819,-0.017101,0.011634
4.781374,-0.010722,-0.029923,0.011579
4.791414,-0.019210,-0.013861,0.008427
4.801424,-0.013914,-0.027777,0.011580
4.811464,-0.017099,-0.020266,0.006266
4.821474,-0.014974,-0.025637,0.011588
4.831514,-0.013914,-0.025621,0.007318
4.841524,-0.017108,-0.026698,0.011577
4.851564,-0.012841,-0.023493,0.008399
4.861605,-0.005387,-0.028883,0.013735
4.871614,-0.011775,-0.025653,0.012665
4.881655,-0.011777,-0.024570,0.009465
4.891664,-0.017105,-0.025631,0.011582
4.901705,-0.012832,-0.021368,0.010546
4.911714,-0.014975,-0.025632,0.010519
4.921755,-0.013900,-0.021359,0.009474
4.931795,-0.020301,-0.025625,0.012641
4.951845,-0.013884,-0.019254,0.015894
4.951845,-0.013884,-0.019254,0.015894
4.961855,-0.016047,-0.027765,0.010506
4.971895,-0.009636,-0.023529,0.013749
4.981905,-0.013913,-0.026704,0.010517
4.991945,-0.013895,-0.021374,0.012679
5.001955,-0.012831,-0.021373,0.011614
5.032045,-0.022432,-0.024545,0.011572
5.042085,-0.020306,-0.027766,0.013699
5.052095,-0.018172,-0.024549,0.009448
5.062136,-0.016050,-0.029911,0.012633
5.072145,-0.022433,-0.024540,0.010504
5.082186,-0.021370,-0.026690,0.012633
5.092226,-0.020313,-0.028819,0.010490
5.102236,-0.020309,-0.027756,0.011563
5.112276,-0.019246,-0.027749,0.009429
5.122286,-0.025644,-0.029875,0.011538
5.132326,-0.028849,-0.030917,0.008320
5.142336,-0.022442,-0.027744,0.010489
5.152376,-0.026718,-0.033075,0.011520
5.162386,-0.024586,-0.030931,0.008331
5.172426,-0.017126,-0.033106,0.011546
5.182466,-0.018202,-0.036301,0.010460
5.192476,-0.010728,-0.033137,0.013700
5.202516,-0.013927,-0.033121,0.012623
5.212526,-0.014988,-0.032055,0.013694
5.222566,-0.011800,-0.035269,0.013687
5.232576,-0.009670,-0.035271,0.012625
5.242616,-0.014968,-0.024580,0.013729
5.252657,-0.017126,-0.033106,0.011546
5.252657,-0.017126,-0.033106,0.011546
5.272707,-0.013921,-0.030986,0.012634
5.282717,-0.021359,-0.024569,0.015848
5.292757,-0.009676,-0.037407,0.012615
5.302767,-0.008571,-0.026762,0.019078
5.312807,-0.010714,-0.029948,0.016920
5.322817,-0.006434,-0.023555,0.016962
5.332857,-0.005388,-0.032112,0.019061
5.342897,-0.003267,-0.034239,0.015852
5.352907,0.003163,-0.023601,0.020193
5.362947,-0.004331,-0.034241,0.016917
5.372957,0.008448,-0.039637,0.020132
5.382997,0.008481,-0.027890,0.020188
5.393007,0.006324,-0.036421,0.019073
5.403047,0.014849,-0.036444,0.018028
5.413088,0.012729,-0.034321,0.022305
5.423097,0.005255,-0.035330,0.014802
5.443147,0.004192,-0.034258,0.014805
5.453188,0.006325,-0.033192,0.013747
5.463198,-0.003247,-0.026764,0.015888
5.473238,-0.000078,-0.034224,0.010520
5.483248,0.005280,-0.027869,0.018042
5.493288,0.001001,-0.029961,0.011611
5.503328,0.009534,-0.028931,0.013776
5.503328,0.009534,-0.028931,0.013776
5.523378,0.010597,-0.030002,0.013774
5.523378,0.010597,-0.030002,0.013774
5.533388,0.014873,-0.026828,0.017006
5.553438,0.011671,-0.025724,0.011661
5.553438,0.011671,-0.025724,0.011661
5.563478,0.007414,-0.025730,0.015922
5.593569,-0.006435,-0.023550,0.015894
5.593569,-0.006435,-0.023550,0.015894
5.613619,0.002084,-0.026786,0.016970
5.613619,0.002084,-0.026786,0.016970
5.623628,-0.005375,-0.025689,0.015887
5.633669,-0.009649,-0.029952,0.016923
5.653756,-0.004311,-0.027843,0.019084
5.653756,-0.004311,-0.027843,0.019084
5.673806,-0.005378,-0.026757,0.015882
5.673806,-0.005378,-0.026757,0.015882
5.683846,-0.018160,-0.024584,0.016925
5.693856,-0.008588,-0.028862,0.011590
5.703896,-0.020286,-0.022442,0.016929
5.723946,-0.011761,-0.023542,0.018016
5.733986,-0.020303,-0.025620,0.011573
5.733986,-0.020303,-0.025620,0.011573
5.743996,-0.019245,-0.030983,0.015823
5.754037,-0.016025,-0.021372,0.013741
5.764046,-0.007497,-0.022483,0.016964
5.774087,-0.007524,-0.032089,0.015851
5.794137,-0.010697,-0.022463,0.014819
5.804177,-0.000040,-0.024648,0.018043
5.804177,-0.000040,-0.024648,0.018043
5.814187,-0.004286,-0.018227,0.018062
5.824227,-0.008555,-0.019271,0.015908
5.834237,-0.006422,-0.019283,0.016982
5.844277,-0.006429,-0.021414,0.015904
5.864327,-0.006420,-0.016059,0.012725
5.874337,-0.005355,-0.019291,0.018054
5.884377,-0.018124,-0.009618,0.013791
5.894417,-0.012812,-0.018199,0.018038
5.904427,-0.008559,-0.018183,0.011641
5.914467,-0.013869,-0.014992,0.018050
5.934517,-0.010675,-0.016070,0.018054
5.944527,-0.017079,-0.018175,0.015890
5.954568,-0.007504,-0.023536,0.013755
5.964608,-0.014941,-0.016046,0.015906
5.974618,-0.010715,-0.028870,0.014789
5.984658,-0.006424,-0.018200,0.013783
6.004708,-0.009642,-0.024587,0.011607
6.004708,-0.009642,-0.024587,0.011607
6.014718,-0.009630,-0.022471,0.015890
6.024758,-0.014972,-0.026721,0.014787
6.034768,-0.008578,-0.024585,0.010542
6.044808,-0.013903,-0.026734,0.016927
6.054848,-0.018160,-0.021355,0.011599
6.094948,-0.020293,-0.021343,0.010525
6.094948,-0.020293,-0.021343,0.010525
6.104958,-0.026690,-0.023469,0.012634
6.114998,-0.022429,-0.021321,0.007315
6.125039,-0.019209,-0.017095,0.014821
6.135048,-0.025617,-0.019185,0.009452
6.145089,-0.011754,-0.019255,0.014831
6.155099,-0.020293,-0.021343,0.010525
6.165139,-0.016017,-0.019242,0.014820
6.175149,-0.014946,-0.016031,0.012701
6.185189,-0.015997,-0.012844,0.016986
6.195199,-0.011762,-0.021386,0.013753
6.215279,-0.010696,-0.021390,0.013756
6.215279,-0.010696,-0.021390,0.013756
6.225289,-0.005354,-0.020369,0.020185
6.235329,-0.009628,-0.022476,0.016958
6.245339,-0.007502,-0.025697,0.019086
6.255379,-0.008563,-0.025709,0.022287
6.265389,-0.004306,-0.025702,0.018026
6.285470,-0.010698,-0.025692,0.020145
6.285470,-0.010698,-0.025692,0.020145
6.295479,0.005260,-0.037501,0.022270
6.305520,-0.006448,-0.031050,0.021200
6.315529,-0.007505,-0.028921,0.023343
6.325570,-0.009648,-0.033186,0.023317
6.335579,-0.002208,-0.040686,0.023302
6.355630,-0.011781,-0.034252,0.024374
6.355630,-0.011781,-0.034252,0.024374
6.365670,-0.006476,-0.039579,0.017954
6.375710,-0.002209,-0.040681,0.022234
6.385720,-0.016051,-0.033140,0.017958
6.395760,-0.005391,-0.034258,0.021187
6.405770,-0.012877,-0.039538,0.013664
6.425820,-0.013927,-0.033121,0.012623
6.425820,-0.013927,-0.033121,0.012623
6.435860,-0.009673,-0.039568,0.017946
6.445901,-0.021370,-0.025612,0.010502
6.455910,-0.005400,-0.035305,0.016909
6.465951,-0.011784,-0.028857,0.012649
6.475960,-0.005381,-0.027825,0.015877
6.496010,0.001007,-0.028903,0.013753
6.496010,0.001007,-0.028903,0.013753
6.506051,0.002081,-0.028932,0.019097
6.516060,0.000995,-0.035326,0.016927
6.526101,-0.000032,-0.020367,0.015927
6.536141,-0.007515,-0.031042,0.020128
6.546151,-0.002202,-0.033165,0.013724
6.566201,-0.019231,-0.025644,0.015849
6.566201,-0.019231,-0.025644,0.015849
6.576241,-0.011754,-0.020334,0.016963
6.586251,-0.013902,-0.028890,0.021189
6.596291,-0.023487,-0.022421,0.014784
6.606331,-0.011762,-0.024615,0.019079
6.616341,-0.024543,-0.022448,0.021190
6.636391,-0.006433,-0.025711,0.021225
6.646432,-0.014975,-0.032096,0.022239
6.656467,-0.004317,-0.028901,0.016943
6.666508,-0.005395,-0.036398,0.022245
6.676517,-0.014992,-0.035274,0.016883
6.686558,-0.004339,-0.037450,0.017970
6.706608,-0.016040,-0.029941,0.019042
6.716648,-0.007532,-0.034220,0.014772
6.726658,-0.016043,-0.031009,0.019037
6.736698,-0.014975,-0.028867,0.016913
6.746708,-0.007498,-0.022478,0.015896
6.756748,-0.008584,-0.029950,0.015858
6.776798,-0.004288,-0.016066,0.012731
6.786838,-0.014956,-0.021386,0.015881
6.796848,0.003132,-0.032119,0.014812
6.806888,-0.007478,-0.013925,0.013800
6.816898,-0.006428,-0.022497,0.019104
6.826939,-0.005356,-0.018208,0.014854
6.846989,-0.012790,-0.009651,0.017010
6.857029,-0.005380,-0.026752,0.014814
6.867039,-0.002155,-0.016078,0.013805
6.877079,-0.021331,-0.017119,0.021224
6.887089,-0.004309,-0.022463,0.010564
6.897129,-0.002152,-0.019317,0.021267
6.917179,-0.001111,-0.024630,0.014835
6.927219,-0.009621,-0.020345,0.018037
6.937229,-0.005385,-0.026737,0.011609
6.947269,0.001017,-0.028934,0.020162
6.957279,-0.023489,-0.024567,0.016910
6.967319,0.002065,-0.033189,0.015872
6.977329,-0.012821,-0.022481,0.020154
6.987369,-0.008595,-0.033149,0.014774
6.997410,-0.002163,-0.022516,0.020184
7.007419,-0.018162,-0.025657,0.017988
7.017460,-0.013901,-0.023510,0.012669
7.027470,-0.005373,-0.026772,0.019086
7.037510,-0.013896,-0.023525,0.015874
7.057560,-0.012840,-0.027806,0.016924
7.057560,-0.012840,-0.027806,0.016924
7.067570,-0.012840,-0.026727,0.014793
7.077610,-0.009632,-0.025695,0.020148
7.087650,-0.006431,-0.021409,0.014836
7.097660,-0.001109,-0.025713,0.018035
7.107700,-0.005372,-0.024621,0.015892
7.127750,-0.004302,-0.023562,0.016968
7.137760,-0.010714,-0.024563,0.007332
7.147800,-0.015999,-0.014990,0.019113
7.157841,-0.021367,-0.024544,0.010507
7.167850,-0.009649,-0.026718,0.010529
7.177891,-0.013890,-0.021389,0.015884
7.217991,-0.011784,-0.027779,0.010518
7.217991,-0.011784,-0.027779,0.010518
7.228001,-0.012828,-0.020305,0.011619
7.238041,-0.012864,-0.033115,0.010490
7.248081,-0.012835,-0.023514,0.012672
7.258091,-0.006443,-0.024602,0.012684
7.268131,-0.001137,-0.033163,0.012659
7.278141,-0.004295,-0.020353,0.015915
7.288181,-0.003261,-0.028874,0.010537
7.298191,-0.003242,-0.024623,0.014830
7.308231,-0.002181,-0.024611,0.011628
7.318272,-0.008558,-0.019261,0.013772
7.338322,-0.008557,-0.018188,0.012709
7.348331,0.002095,-0.021436,0.014859
7.358372,-0.007478,-0.013925,0.013800
7.368381,-0.010695,-0.019239,0.010562
7.378422,-0.008554,-0.016042,0.010583
7.388431,-0.013870,-0.011758,0.011656
7.408512,-0.018148,-0.017084,0.011619
7.418522,-0.017096,-0.020276,0.008403
7.428562,-0.020268,-0.012805,0.011634
7.438572,-0.014987,-0.029904,0.010499
7.448612,-0.010713,-0.023490,0.006269
7.458622,-0.012841,-0.024571,0.010530
7.478702,-0.011799,-0.032040,0.008362
7.488712,-0.019230,-0.023493,0.012654
7.498752,-0.010731,-0.032049,0.009433
7.508762,-0.018180,-0.028831,0.011564
7.518803,-0.019259,-0.032016,0.008341
7.528812,-0.014987,-0.028826,0.008368
7.548862,-0.020309,-0.026678,0.009432
7.558903,-0.010740,-0.035253,0.009417
7.568943,-0.022450,-0.027719,0.005148
7.578953,-0.017106,-0.024552,0.009450
7.588993,-0.007550,-0.037394,0.008348
7.599003,-0.022436,-0.024530,0.008368
7.619053,-0.016052,-0.027750,0.007302
7.629093,-0.018183,-0.028821,0.009427
7.639133,-0.021372,-0.023450,0.005171
7.649147,-0.019252,-0.028807,0.007288
7.659187,-0.019247,-0.025593,0.005167
7.669197,-0.011790,-0.027758,0.006245
7.679237,-0.018182,-0.025592,0.004102
7.689247,-0.010738,-0.032029,0.005160
7.699287,-0.017107,-0.019162,-0.001206
7.709297,-0.014976,-0.022398,0.004126
7.719338,-0.019231,-0.018103,0.001998
7.729378,0.002072,-0.022438,0.000968
7.739388,-0.007490,-0.014962,0.007386
7.759438,0.006361,-0.013919,0.003156
7.759438,0.006361,-0.013919,0.003156
7.769478,0.003161,-0.016055,0.005274
7.779488,0.013828,-0.010729,0.001056
7.789528,0.007444,-0.008588,0.004253
7.799568,0.007429,-0.013928,0.004228
7.809578,0.005317,-0.004289,-0.000006
7.829628,-0.003217,-0.009621,0.004218
7.829628,-0.003217,-0.009621,0.004218
7.839668,-0.003202,-0.002131,0.001049
7.849678,-0.007449,0.003218,0.002131
7.859718,-0.012843,-0.015947,-0.006520
7.869728,0.001047,-0.009640,0.005298
7.879768,-0.005338,-0.002108,-0.002161
7.889809,-0.008557,-0.011725,0.000989
7.899818,-0.012809,-0.005283,-0.003265
7.909859,-0.001084,-0.004248,-0.004296
7.919869,-0.012823,-0.011701,-0.001159
7.929909,-0.005368,-0.011710,-0.004343
7.939919,-0.001089,-0.007462,-0.002175
7.949959,0.002083,-0.016011,-0.003275
7.970009,0.000999,-0.022415,-0.003308
7.980049,0.004219,-0.014955,-0.002196
7.990059,0.005282,-0.017104,-0.000066
8.000099,0.004166,-0.033099,-0.004418
8.010109,0.005243,-0.028831,-0.004395
8.020149,-0.005392,-0.021326,-0.003320
8.040199,0.002026,-0.036296,-0.004439
8.050240,-0.004331,-0.023470,-0.002259
8.060249,-0.006497,-0.034128,-0.005520
8.070290,0.003109,-0.029892,-0.004406
8.080299,-0.006458,-0.022401,-0.001192
8.090340,-0.009663,-0.022365,-0.006542
8.110390,-0.001107,-0.014948,-0.000074
8.110390,-0.001107,-0.014948,-0.000074
8.120430,0.000980,-0.026661,-0.008669
8.130440,0.004179,-0.026677,-0.007592
8.140480,-0.004330,-0.020241,-0.007585
8.150490,0.003112,-0.024517,-0.011858
8.160530,0.002063,-0.020257,-0.008636
8.170540,-0.007541,-0.022342,-0.012945
8.180580,0.000993,-0.021316,-0.009712
8.190590,-0.006447,-0.013817,-0.009697
8.200630,-0.003251,-0.013822,-0.010757
8.210671,-0.006459,-0.019167,-0.007586
8.220680,-0.010712,-0.012720,-0.012908
8.230721,-0.005392,-0.015941,-0.012909
8.240730,-0.009658,-0.018073,-0.010794
8.250771,-0.021353,-0.005200,-0.015039
8.260780,-0.009658,-0.016995,-0.012926
8.270821,-0.011771,-0.010586,-0.011833
8.280861,-0.020281,-0.003067,-0.015026
8.290871,-0.013914,-0.013772,-0.013990
8.300911,-0.013901,-0.010584,-0.010771
8.330971,-0.020288,-0.009510,-0.007579
8.341011,-0.007502,-0.007385,-0.013942
8.351021,-0.006447,-0.015973,-0.005434
8.361061,-0.014957,-0.008454,-0.008627
8.371101,-0.012822,-0.006320,-0.009679
8.381111,-0.009665,-0.023438,-0.005479
8.391151,-0.014969,-0.012726,-0.008647
8.401161,-0.013918,-0.019147,-0.006538
8.411202,-0.009673,-0.026642,-0.005494
8.421211,-0.007523,-0.019168,-0.006521
8.431252,-0.012838,-0.015962,-0.003316
8.441292,-0.013921,-0.019137,-0.008675
8.451302,-0.009654,-0.020239,-0.004395
8.461342,-0.006476,-0.025574,-0.007616
8.471352,-0.012840,-0.014879,-0.006515
8.481392,-0.014995,-0.023416,-0.006561
8.491402,-0.008592,-0.020233,-0.006529
8.501442,-0.007502,-0.013849,-0.002223
8.511482,-0.009650,-0.017020,-0.007585
8.531532,0.002076,-0.020298,-0.000090
8.541542,0.007396,-0.018133,-0.009679
8.551582,0.006340,-0.019238,-0.001142
8.561592,-0.000064,-0.019187,-0.007568
8.571632,0.001024,-0.011720,-0.006462
8.581642,-0.004314,-0.015985,-0.004360
8.601723,-0.007508,-0.013828,-0.006495
8.611733,-0.000080,-0.025600,-0.006531
8.621773,-0.011772,-0.012737,-0.008638
8.631783,-0.009652,-0.018093,-0.006522
8.641823,-0.003263,-0.020250,-0.006514
8.651860,-0.014982,-0.016993,-0.009736
8.671940,-0.010735,-0.024497,-0.006555
8.671940,-0.010735,-0.024497,-0.006555
8.681950,-0.011781,-0.014862,-0.010785
8.691990,-0.013919,-0.020220,-0.005475
8.702000,-0.007544,-0.025566,-0.008687
8.712040,-0.009653,-0.017010,-0.009721
8.722050,-0.010721,-0.018080,-0.008661
8.742100,-0.009632,-0.011691,-0.005423
8.752140,0.007391,-0.023503,-0.003295
8.762181,0.010574,-0.026697,-0.007575
8.772190,-0.002179,-0.014924,-0.004349
8.782231,0.014813,-0.039562,-0.000146
8.792240,0.007417,-0.012814,-0.005381
8.812291,0.009494,-0.034190,-0.003340
8.822331,0.001001,-0.020264,-0.006502
8.832371,-0.002180,-0.015997,-0.003286
8.842381,-0.001178,-0.038422,-0.004458
8.852421,-0.008574,-0.014903,-0.004367
8.862431,-0.007533,-0.022367,-0.007604
8.882481,-0.016073,-0.026606,-0.008716
8.892521,-0.020326,-0.022315,-0.009776
8.902531,-0.028842,-0.018011,-0.010847
8.912571,-0.012883,-0.029825,-0.007654
8.922612,-0.023540,-0.027639,-0.010878
8.932621,-0.013953,-0.029806,-0.010862
8.952671,-0.004353,-0.028785,-0.007626
8.962712,-0.007554,-0.029842,-0.007640
8.972721,0.006287,-0.034149,-0.009758
8.982762,0.003121,-0.026698,-0.002254
8.992802,0.010563,-0.029896,-0.008658
9.002812,0.004207,-0.018148,-0.004347
9.012852,0.005232,-0.032025,-0.006546
9.032902,-0.010701,-0.014911,-0.001168
9.042912,-0.009652,-0.014859,-0.012916
9.052952,-0.003277,-0.025590,-0.006539
9.062962,-0.019218,-0.007373,-0.008634
9.073002,-0.022407,-0.003080,-0.010759
9.093052,-0.009648,-0.013796,-0.011842
9.103093,-0.014937,-0.002057,-0.006460
9.113102,-0.009637,-0.010598,-0.010759
9.123143,-0.004318,-0.017048,-0.005434
9.133152,-0.005362,-0.009574,-0.004333
9.143193,0.014862,-0.018173,-0.006454
9.153233,0.007401,-0.019227,-0.004343
9.153233,0.007401,-0.019227,-0.004343
9.173283,0.011670,-0.016027,-0.006453
9.183293,0.015917,-0.022453,-0.005403
9.193333,0.013782,-0.025665,-0.002220
9.203343,0.014843,-0.026731,-0.003290
9.213383,0.017001,-0.016049,-0.005370
9.233433,0.009498,-0.030971,-0.006530
9.233433,0.009498,-0.030971,-0.006530
9.253483,0.010586,-0.014931,-0.004344
9.253483,-0.000047,-0.014931,-0.004344
9.273533,0.006302,-0.029887,-0.007601
9.273533,0.006302,-0.029887,-0.007601
9.293583,-0.017135,-0.023383,-0.011908
9.313664,-0.011819,-0.028745,-0.010851
9.313664,-0.011819,-0.028745,-0.010851
9.323674,-0.008610,-0.023406,-0.012953
9.333714,-0.001137,-0.021315,-0.008650
9.343724,-0.003300,-0.030904,-0.011906
9.353764,0.002049,-0.025597,-0.008661
9.363774,-0.009659,-0.020224,-0.007600
9.403904,0.005232,-0.032025,-0.006546
9.413914,-0.004346,-0.026654,-0.006547
9.423954,-0.005421,-0.028776,-0.008697
9.433964,-0.008620,-0.028761,-0.009774
9.444004,0.008416,-0.036302,-0.007626
9.454014,-0.007522,-0.018095,-0.007584
9.464054,-0.008624,-0.031980,-0.006584
9.474095,-0.012853,-0.020224,-0.005472
9.484105,-0.010729,-0.022361,-0.006545
9.494145,-0.012858,-0.021287,-0.006546
9.504155,-0.013927,-0.021273,-0.008685
9.534245,-0.020301,-0.013777,-0.008667
9.534245,-0.020301,-0.013777,-0.008667
9.544255,-0.013924,-0.021283,-0.006548
9.554295,-0.013921,-0.019137,-0.008675
9.564335,-0.011794,-0.021285,-0.007611
9.574345,-0.009649,-0.015947,-0.008648
9.604435,0.005273,-0.017074,-0.006475
9.604435,0.005273,-0.017074,-0.006475
9.614445,-0.009685,-0.029835,-0.007645
9.624485,0.003116,-0.026683,-0.005459
9.634526,-0.005400,-0.022379,-0.006530
9.644535,-0.007573,-0.037323,-0.006607
9.664598,-0.018201,-0.027687,-0.004454
9.664598,-0.018201,-0.027687,-0.004454
9.674639,-0.008635,-0.034100,-0.009799
9.684649,0.000950,-0.040570,-0.003394
9.694689,-0.017153,-0.031942,-0.008744
9.704699,-0.011820,-0.031974,-0.005525
9.714739,-0.016095,-0.036232,-0.005557
9.744829,-0.007580,-0.041610,-0.003422
9.744829,-0.007580,-0.041610,-0.003422
9.754839,-0.003297,-0.035221,-0.002312
9.764879,0.002024,-0.037369,-0.003376
9.774889,0.006282,-0.040597,-0.001243
9.784929,-0.004332,-0.023465,-0.003328
9.815020,-0.003278,-0.030975,0.003049
9.815020,-0.003278,-0.030975,0.003049
9.825029,-0.000087,-0.030965,-0.001215
9.835070,0.005246,-0.033148,0.005199
9.845079,-0.005409,-0.029890,0.000912
9.855120,0.005251,-0.026700,-0.003316
9.885210,0.016977,-0.029978,0.004178
9.885210,0.016977,-0.029978,0.004178
9.895220,0.004198,-0.026737,0.005226
9.905260,0.014852,-0.025684,0.000988
9.915270,0.010625,-0.016089,0.007431
9.925310,0.011630,-0.035290,0.002002
9.955400,0.013790,-0.026768,0.005253
9.955400,0.013790,-0.026768,0.005253
9.965410,0.005288,-0.016046,0.002075
9.975451,0.007406,-0.019242,-0.001139
9.985460,0.008471,-0.022474,0.004190
9.995501,0.006343,-0.018170,-0.001137
10.025560,0.004209,-0.019231,-0.001148
10.025560,0.004209,-0.019231,-0.001148
10.035601,-0.016007,-0.007424,-0.000079
10.045641,-0.005400,-0.023457,-0.004399
10.055651,-0.005398,-0.022384,-0.005462
10.065691,-0.008565,-0.012777,-0.002221
10.085741,0.003128,-0.022412,-0.005438
10.095751,0.004203,-0.021367,-0.001158
10.105791,-0.003261,-0.021333,-0.003315
10.115831,-0.000079,-0.024527,-0.007594
10.125841,0.004187,-0.027780,-0.000120
10.135881,-0.010718,-0.020241,-0.003330
10.165941,-0.007556,-0.031988,-0.005513
10.165941,-0.007556,-0.031988,-0.005513
10.175982,-0.011802,-0.027723,-0.001232
10.185991,-0.017105,-0.019167,-0.000138
10.196032,-0.001183,-0.041636,-0.002337
10.206072,-0.013910,-0.022402,0.004128
10.226122,-0.009691,-0.038434,0.004064
10.236132,-0.023521,-0.025544,-0.002322
10.246172,-0.012855,-0.021297,-0.004409
10.256182,-0.021402,-0.034130,0.005120
10.266222,-0.020344,-0.033030,-0.002349
10.276262,-0.011770,-0.014898,-0.003308
10.296312,-0.027790,-0.026588,-0.004475
10.296312,-0.027790,-0.026588,-0.004475
10.306322,-0.007535,-0.026669,-0.001215
10.316362,-0.026706,-0.024496,0.004083
10.326372,-0.020344,-0.028723,-0.009806
10.336412,-0.007500,-0.016010,0.003108
10.346422,-0.020328,-0.027695,-0.001255
10.376513,-0.014996,-0.025567,-0.003367
10.376513,-0.014996,-0.025567,-0.003367
10.386553,-0.002176,-0.014934,-0.002213
10.396563,-0.013926,-0.023429,-0.004422
10.406603,-0.013932,-0.025565,-0.004432
10.416613,-0.009631,-0.012774,-0.002223
10.446703,-0.006449,-0.019197,-0.001177
10.446703,-0.006449,-0.019197,-0.001177
10.456743,-0.022442,-0.019125,-0.005494
10.466753,-0.002228,-0.030928,-0.007630
10.476793,-0.015003,-0.028775,-0.002314
10.486803,-0.025657,-0.025522,-0.005533
10.526934,-0.010733,-0.025580,-0.003355
10.526934,-0.010733,-0.025580,-0.003355
10.536943,-0.012865,-0.028803,0.001965
10.546984,-0.009680,-0.032007,-0.000178
10.556993,-0.007549,-0.030936,-0.002304
10.567034,-0.011800,-0.027728,-0.000164
10.577044,-0.011812,-0.030922,-0.002315
10.587084,-0.016059,-0.025573,-0.001234
10.597124,-0.012875,-0.028772,-0.004445
10.607134,-0.016066,-0.029860,0.001951
10.617174,-0.026726,-0.027664,-0.003409
10.627184,-0.020320,-0.022335,-0.005503
10.657309,-0.029922,-0.025503,-0.006613
10.657309,-0.029922,-0.025503,-0.006613
10.667319,-0.028893,-0.040473,-0.003476
10.677359,-0.006441,-0.012759,-0.007556
10.687400,-0.020304,-0.020230,0.000916
10.697409,-0.015026,-0.035168,-0.005549
10.727500,-0.000080,-0.029907,0.000927
10.727500,-0.000080,-0.029907,0.000927
10.737509,-0.006448,-0.017046,-0.004371
10.747550,-0.009655,-0.022390,-0.001201
10.757590,-0.004357,-0.033082,-0.002305
10.767600,-0.002185,-0.018138,-0.002228
10.787650,-0.004350,-0.029873,-0.003358
10.787650,-0.004350,-0.029873,-0.003358
10.797690,-0.002196,-0.023487,-0.000117
10.807700,-0.013885,-0.010634,-0.000089
10.817740,-0.009654,-0.019161,-0.006527
10.827750,-0.006448,-0.022431,0.005217
10.837790,-0.009647,-0.018108,-0.003317
10.857840,-0.000056,-0.020291,-0.000096
10.867881,-0.008576,-0.017049,-0.002241
10.877890,-0.004310,-0.017073,-0.000093
10.887931,-0.008565,-0.012777,-0.002221
10.897940,-0.008569,-0.014918,-0.001162
10.907981,0.004191,-0.023483,-0.005441
10.938071,0.013785,-0.023519,-0.004346
10.938071,0.013785,-0.023519,-0.004346
10.948081,0.002103,-0.011764,0.002087
10.958121,0.010622,-0.009616,-0.006425
10.968131,0.011682,-0.013911,-0.002170
10.978171,0.003137,-0.019208,-0.005423
10.998221,-0.004290,-0.008519,-0.002189
11.008261,0.008436,-0.028826,-0.007591
11.018271,0.002138,0.005358,-0.005310
11.028311,-0.002184,-0.014909,-0.007554
11.038321,0.008476,-0.016026,-0.004325
11.048361,-0.006410,-0.001007,-0.008568
11.068412,0.003129,-0.021339,-0.006502
11.068412,0.003129,-0.021339,-0.006502
11.078452,0.002103,-0.005301,-0.009633
11.088462,-0.008573,-0.011674,-0.009693
11.098502,0.003153,-0.013873,-0.004330
11.108512,0.012767,-0.004278,-0.007462
11.118552,0.004237,-0.005318,-0.007491
11.148612,0.013854,-0.000040,-0.001030
11.148612,0.013854,-0.000040,-0.001030
11.158652,0.018075,-0.011771,-0.007483
11.168692,0.021286,-0.006436,-0.008517
11.178702,0.015979,-0.001105,-0.003166
11.188742,0.014890,-0.008567,-0.005340
11.218802,0.003185,-0.001048,-0.006405
11.218802,0.003185,-0.001048,-0.006405
11.228842,0.008492,-0.008536,-0.007494
11.238883,0.008505,-0.002113,-0.010669
11.248893,0.001068,0.005377,-0.008517
11.258933,0.002117,0.000039,-0.009608
11.288993,-0.002161,-0.002053,-0.016039
11.288993,-0.002161,-0.002053,-0.016039
11.299033,0.003161,-0.006357,-0.012840
11.309043,0.001027,-0.005267,-0.016045
11.319083,-0.001081,0.003283,-0.016011
11.329123,-0.001107,-0.007406,-0.013925
11.349173,0.002106,-0.001004,-0.014954
11.349173,0.002106,-0.001004,-0.014954
11.359183,-0.000052,-0.008452,-0.019268
11.369223,-0.003269,-0.014844,-0.020375
11.379233,-0.014954,-0.000923,-0.020342
11.389273,-0.012848,-0.009469,-0.021445
11.399314,-0.014973,-0.008404,-0.019309
11.419364,-0.007529,-0.014841,-0.018251
11.429373,-0.018192,-0.013713,-0.023616
11.439414,-0.016050,-0.010521,-0.022527
11.449424,-0.012858,-0.014823,-0.018265
11.459464,-0.025652,-0.016923,-0.017242
11.469474,-0.007544,-0.019102,-0.020407
11.479514,-0.013928,-0.016961,-0.017210
11.489554,-0.017140,-0.021212,-0.019376
11.499564,-0.008609,-0.020177,-0.018279
11.509604,-0.017145,-0.025504,-0.015123
11.519614,-0.020332,-0.022295,-0.014048
11.529654,-0.016086,-0.026565,-0.017262
11.539664,-0.016072,-0.022299,-0.016173
11.569754,-0.018176,-0.014842,-0.010803
11.569754,-0.018176,-0.014842,-0.010803
11.579795,-0.021439,-0.037242,-0.014122
11.589804,-0.004355,-0.024473,-0.016151
11.599845,-0.011816,-0.027677,-0.010846
11.609854,-0.021410,-0.026563,-0.014072
11.629904,-0.009674,-0.024486,-0.009756
11.639945,-0.009679,-0.023392,-0.015092
11.649985,0.006287,-0.034149,-0.009758
11.660016,-0.006491,-0.028758,-0.011904
11.670056,0.002053,-0.023456,-0.009719
11.680066,0.002062,-0.020252,-0.009704
11.690106,0.016949,-0.030965,-0.012918
11.700116,0.004189,-0.023478,-0.006509
11.710156,0.003090,-0.031987,-0.012961
11.720196,0.015891,-0.029908,-0.009711
11.730206,0.005241,-0.026670,-0.009726
11.740247,-0.000085,-0.023429,-0.013998
11.750256,0.013742,-0.037387,-0.007616
11.760297,0.007365,-0.027730,-0.012929
11.770306,0.007377,-0.024536,-0.010778
11.780347,0.014823,-0.029900,-0.010783
11.790356,0.010545,-0.031991,-0.017214
11.800397,0.010560,-0.029886,-0.010794
11.810437,0.007353,-0.029845,-0.017212
11.820447,0.009477,-0.036290,-0.010828
11.830487,-0.006476,-0.021267,-0.015073
11.840497,0.004124,-0.039431,-0.020471
11.850537,0.006291,-0.032008,-0.010816
11.860547,-0.007554,-0.024457,-0.017228
11.870587,-0.006489,-0.024456,-0.018293
11.880627,-0.004394,-0.038351,-0.017285
11.890637,-0.011823,-0.024423,-0.021512
11.890637,-0.011823,-0.024423,-0.021512
11.910687,-0.005436,-0.027653,-0.020442
11.920727,-0.008620,-0.023376,-0.019362
11.930737,-0.017153,-0.025479,-0.020464
11.940778,-0.017168,-0.029740,-0.022621
11.950787,-0.016079,-0.022278,-0.020446
11.960828,-0.021410,-0.020100,-0.025791
11.980878,-0.016092,-0.025467,-0.023666
11.990918,-0.018187,-0.012650,-0.022543
12.000928,-0.016057,-0.014808,-0.019342
12.010968,-0.001177,-0.028729,-0.021503
12.020978,-0.009653,-0.010547,-0.021441
12.031018,-0.017120,-0.013737,-0.019340
12.041058,-0.002231,-0.025532,-0.019355
12.051068,0.000998,-0.014868,-0.018227
12.061108,-0.003261,-0.012714,-0.019297
12.071118,-0.001156,-0.023410,-0.017205
12.081158,-0.002185,-0.009518,-0.018211
12.091168,-0.006469,-0.015902,-0.020389
12.101208,-0.007522,-0.011632,-0.019304
12.131299,-0.025621,-0.003014,-0.022518
12.131299,-0.025621,-0.003014,-0.022518
12.141309,-0.009673,-0.014793,-0.026802
12.151349,-0.011775,-0.007341,-0.020363
12.161359,-0.021387,-0.011557,-0.025751
12.171399,-0.003270,-0.010532,-0.028901
12.181409,-0.014995,-0.015874,-0.020413
12.191449,-0.008609,-0.014792,-0.027867
12.201489,0.002058,-0.011623,-0.027823
12.211499,-0.012866,-0.014798,-0.023606
12.221539,-0.005407,-0.012661,-0.028917
12.231549,-0.005395,-0.010546,-0.024634
12.241589,-0.003299,-0.023368,-0.024689
12.261639,-0.001139,-0.014846,-0.021438
12.271649,0.005229,-0.022322,-0.025728
12.281689,0.008443,-0.019154,-0.020363
12.291730,-0.002236,-0.024439,-0.024691
12.301739,-0.004340,-0.013748,-0.025714
12.311780,-0.004360,-0.022301,-0.023618
12.331830,0.001004,-0.021352,-0.002235
12.341840,-0.007566,-0.025495,-0.023642
12.351880,-0.001158,-0.022327,-0.020405
12.361920,0.002044,-0.021274,-0.019323
12.371930,0.004167,-0.025563,-0.017201
12.381970,0.002046,-0.020201,-0.020386
12.402020,0.006297,-0.028794,-0.012937
12.412030,0.010553,-0.026632,-0.021461
12.422070,0.016949,-0.027735,-0.018244
12.432080,-0.006477,-0.021262,-0.016142
12.442120,0.009494,-0.022341,-0.024648
12.452161,0.014804,-0.035224,-0.014012
12.462170,0.008423,-0.027708,-0.018267
12.472211,0.023346,-0.028839,-0.015027
12.482220,0.010555,-0.029871,-0.013999
12.492261,0.011622,-0.025567,-0.021453
12.502270,0.013755,-0.027735,-0.016116
12.512311,0.010545,-0.028762,-0.022539
12.522351,0.008444,-0.020232,-0.018232
12.552411,-0.001156,-0.021254,-0.021468
12.562451,-0.007563,-0.023349,-0.025768
12.572461,0.003080,-0.028723,-0.025764
12.582501,-0.003292,-0.023388,-0.020416
12.592511,0.003088,-0.027670,-0.022555
12.612591,-0.000091,-0.021257,-0.021465
12.622601,0.007352,-0.025533,-0.025738
12.632642,0.018005,-0.029860,-0.021456
12.642651,0.006290,-0.026618,-0.021473
12.652719,0.007355,-0.025543,-0.023601
12.662728,0.019049,-0.038412,-0.020425
12.682809,0.004182,-0.019145,-0.019307
12.692819,0.010541,-0.030903,-0.021481
12.702859,0.010554,-0.026637,-0.020393
12.712869,-0.000066,-0.011641,-0.022488
12.722909,0.008404,-0.033032,-0.021497
12.732919,-0.001181,-0.029792,-0.022577
12.742959,-0.019258,-0.013709,-0.023619
12.752969,0.000980,-0.020198,-0.020389
12.752969,0.000980,-0.020198,-0.020389
12.773049,-0.011803,-0.015870,-0.023608
12.783059,-0.007554,-0.022301,-0.021491
12.793099,-0.003329,-0.034042,-0.025807
12.793099,-0.003329,-0.034042,-0.025807
12.813149,-0.001188,-0.030850,-0.024718
12.823159,0.008414,-0.028755,-0.022545
12.833200,0.007386,-0.014869,-0.022482
12.853250,0.002028,-0.026609,-0.020416
12.853250,0.002028,-0.026609,-0.020416
12.873300,0.000971,-0.023402,-0.020404
12.883340,-0.001182,-0.026558,-0.028971
12.903390,-0.005439,-0.026564,-0.024710
12.903390,-0.005439,-0.026564,-0.024710
12.923440,0.011618,-0.025557,-0.023589
12.933480,0.004149,-0.027659,-0.025756
12.933480,0.004149,-0.027659,-0.025756
12.953530,0.004159,-0.024460,-0.024673
12.963540,-0.001172,-0.023359,-0.027887
12.963540,-0.001172,-0.023359,-0.027887
12.973580,0.021212,-0.024515,-0.024626
12.983590,0.010545,-0.026606,-0.026802
12.993630,0.027595,-0.027730,-0.026760
13.003671,0.012690,-0.023425,-0.023576
13.013680,0.014793,-0.030882,-0.028947
13.023721,0.026535,-0.026668,-0.024622
13.053781,0.016941,-0.025554,-0.027848
13.053781,0.016941,-0.025554,-0.027848
13.063821,0.025465,-0.024499,-0.031024
13.073831,0.024401,-0.025578,-0.027827
13.093911,0.015887,-0.020201,-0.029962
13.113961,0.010563,-0.018048,-0.029966
13.113961,0.010563,-0.018048,-0.029966
13.123971,0.016940,-0.022320,-0.034242
13.134011,0.020153,-0.015918,-0.035271
13.144021,0.012689,-0.019112,-0.032102
13.154061,0.023330,-0.021247,-0.039560
13.164102,0.015902,-0.012710,-0.033131
13.184152,0.027623,-0.011660,-0.037366
13.184152,0.027623,-0.011660,-0.037366
13.194161,0.021187,-0.027668,-0.035323
13.204202,0.017994,-0.024439,-0.038522
13.214211,0.024407,-0.016979,-0.039537
13.224252,0.019096,-0.012710,-0.035258
13.234262,0.013756,-0.012658,-0.042750
13.254342,0.006293,-0.013701,-0.042776
13.254342,0.006293,-0.013701,-0.042776
13.264352,0.009490,-0.011556,-0.047030
13.274392,0.014824,-0.012666,-0.041679
13.294442,0.003096,-0.011540,-0.045979
13.294442,0.003096,-0.011540,-0.045979
13.304452,-0.004354,-0.007239,-0.047048
13.324533,0.005231,-0.009401,-0.048100
13.334542,-0.005428,-0.008288,-0.050260
13.344583,-0.004371,-0.011496,-0.050272
13.354592,-0.000091,-0.006175,-0.049167
13.364633,-0.006504,-0.010406,-0.053478
13.374642,-0.000105,-0.009363,-0.052387
13.404733,0.010549,-0.010461,-0.053431
13.404733,0.010549,-0.010461,-0.053431
13.414773,0.008395,-0.017924,-0.054540
13.424783,0.006290,-0.008306,-0.054501
13.434823,0.006293,-0.007238,-0.054496
13.444833,0.009468,-0.015797,-0.053459
13.474923,0.004121,-0.020031,-0.057767
13.474923,0.004121,-0.020031,-0.057767
13.484963,-0.003313,-0.010396,-0.057742
13.494973,0.005212,-0.010418,-0.058787
13.505013,-0.006540,-0.021065,-0.057801
13.515023,-0.002252,-0.011462,-0.058812
13.535073,0.006236,-0.029680,-0.051397
13.535073,0.006236,-0.029680,-0.051397
13.545114,-0.002263,-0.010349,-0.068421
13.555123,0.004112,-0.022157,-0.059913
13.565164,0.008362,-0.027516,-0.058859
13.575204,0.007323,-0.012516,-0.068405
13.585214,0.008392,-0.016836,-0.058808
13.615304,0.006264,-0.012532,-0.064135
13.615304,0.006264,-0.012532,-0.064135
13.625314,0.014737,-0.030705,-0.066334
13.635354,0.007336,-0.008249,-0.067316
13.645394,-0.003342,-0.014612,-0.069512
13.655419,0.003034,-0.018884,-0.073788
13.675469,-0.001227,-0.018875,-0.072731
13.675469,-0.001227,-0.018875,-0.072731
13.685509,-0.001229,-0.018870,-0.073799
13.695519,0.000911,-0.014595,-0.075910
13.705560,-0.009749,-0.016707,-0.073813
13.715569,0.005151,-0.022074,-0.078070
13.725610,-0.002274,-0.010313,-0.075898
13.745660,0.010492,-0.017820,-0.078035
13.755700,-0.002280,-0.013527,-0.073777
13.765710,0.000892,-0.019920,-0.079140
13.775750,0.003031,-0.018874,-0.075924
13.785760,0.008356,-0.021032,-0.074851
13.795800,0.008373,-0.013546,-0.076952
13.825890,0.006228,-0.017806,-0.078047
13.825890,0.006228,-0.017806,-0.078047
13.835900,-0.000168,-0.017780,-0.079132
13.845940,0.001980,-0.011375,-0.080164
13.855950,0.004098,-0.017804,-0.076984
13.865990,-0.009756,-0.013452,-0.084479
13.876000,-0.008689,-0.013461,-0.083408
13.886040,-0.006574,-0.018802,-0.084496
13.896081,-0.004422,-0.010256,-0.086586
13.906091,-0.008699,-0.016659,-0.084492
13.916131,-0.004447,-0.018794,-0.087695
13.926141,-0.001232,-0.012397,-0.087656
13.936181,0.003006,-0.022027,-0.086621
13.966271,0.008329,-0.022024,-0.090879
13.966271,0.008329,-0.022024,-0.090879
13.976281,0.012602,-0.017761,-0.091916
13.986321,0.012603,-0.018839,-0.089784
13.996331,0.011520,-0.022014,-0.095143
14.006371,0.012603,-0.018839,-0.089784
14.026421,0.009400,-0.017736,-0.095129
14.036431,0.006222,-0.011323,-0.094039
14.046471,0.002978,-0.025170,-0.099455
14.056512,0.011526,-0.020956,-0.093002
14.066521,0.003012,-0.012350,-0.100462
14.076562,0.005125,-0.020915,-0.097292
14.096612,0.007262,-0.015552,-0.103670
14.106622,0.005139,-0.017727,-0.094072
14.116662,0.002990,-0.018742,-0.103697
14.126702,0.012611,-0.012401,-0.096163
14.136712,0.007245,-0.024116,-0.099438
14.146752,0.013647,-0.020928,-0.100473
14.166802,0.015768,-0.024134,-0.101551
14.166802,0.015768,-0.024134,-0.101551
14.176812,0.015775,-0.020925,-0.102604
14.186852,0.015769,-0.024139,-0.100483
14.196862,0.013621,-0.027310,-0.105845
14.206902,0.024284,-0.027360,-0.102611
14.216943,0.012566,-0.025186,-0.102633
14.236993,0.014706,-0.021989,-0.102612
14.247002,0.011486,-0.027293,-0.107987
14.257043,0.016823,-0.026258,-0.104763
14.267052,0.013637,-0.021976,-0.104751
14.277093,0.010428,-0.024081,-0.109043
14.287133,0.015744,-0.030521,-0.105854
14.307183,0.012563,-0.025176,-0.104769
14.307183,0.012563,-0.025176,-0.104769
14.317193,0.024267,-0.029460,-0.110098
14.327233,0.022162,-0.020920,-0.107927
14.337243,0.016822,-0.024102,-0.109025
14.347283,0.024296,-0.019859,-0.107916
14.357293,0.021080,-0.026251,-0.109024
14.387383,0.020021,-0.021961,-0.112211
14.387383,0.020021,-0.021961,-0.112211
14.397424,0.014705,-0.018755,-0.109006
14.407433,0.016827,-0.021961,-0.110083
14.417474,0.018970,-0.016618,-0.112189
14.427483,0.010457,-0.012324,-0.111124
14.457574,0.021119,-0.009139,-0.114284
14.457574,0.021119,-0.009139,-0.114284
14.467614,0.020033,-0.018767,-0.110059
14.477624,0.022171,-0.013409,-0.115369
14.487664,0.014724,-0.010196,-0.112170
14.497674,0.014706,-0.014448,-0.116463
14.527764,0.011501,-0.015490,-0.119681
14.527764,0.011501,-0.015490,-0.119681
14.537804,0.009389,-0.010159,-0.116457
14.547814,0.001914,-0.011167,-0.123960
14.557854,0.011498,-0.016558,-0.119686
14.567864,-0.000216,-0.012243,-0.120767
14.587914,0.001907,-0.015454,-0.120776
14.587914,0.001907,-0.015454,-0.120776
14.597955,-0.004483,-0.013292,-0.121852
14.607995,0.000850,-0.010091,-0.125026
14.618005,0.006173,-0.014400,-0.120759
14.628045,-0.003418,-0.012218,-0.123980
14.638055,0.007233,-0.014383,-0.125029
14.658124,0.005106,-0.014391,-0.121830
14.668164,0.014680,-0.019752,-0.123966
14.678174,0.018953,-0.019796,-0.117545
14.688214,0.012568,-0.015499,-0.118610
14.698254,0.017891,-0.016574,-0.120737
14.708264,0.012561,-0.018708,-0.117557
14.728314,0.022179,-0.008049,-0.119617
14.728314,0.022179,-0.008049,-0.119617
14.738354,0.013622,-0.019774,-0.118628
14.748364,0.026397,-0.025155,-0.118618
14.758404,0.009382,-0.010139,-0.120730
14.768445,0.010444,-0.012283,-0.119669
14.778454,0.017884,-0.019783,-0.119684
14.808545,0.009374,-0.013342,-0.120745
14.808545,0.009374,-0.013342,-0.120745
14.818555,0.013616,-0.020832,-0.120769
14.828595,0.007253,-0.007986,-0.122862
14.838605,0.007233,-0.015461,-0.122898
14.848645,0.015743,-0.020824,-0.123968
14.878735,0.012549,-0.019745,-0.123971
14.878735,0.012549,-0.019745,-0.123971
14.888745,0.018923,-0.027241,-0.123989
14.898785,0.018931,-0.022960,-0.126105
14.908795,0.022124,-0.025111,-0.125039
14.918835,0.017853,-0.028301,-0.125066
14.928876,0.018933,-0.022965,-0.125037
14.938885,0.015724,-0.026148,-0.127198
14.948926,0.022107,-0.031519,-0.125069
14.958935,0.014662,-0.025082,-0.126127
14.968976,0.009333,-0.025064,-0.126142
14.978985,0.014639,-0.034703,-0.124036
14.989026,0.007208,-0.022922,-0.126138
15.009076,0.008240,-0.034667,-0.127259
15.009076,0.008240,-0.034667,-0.127259
15.019116,0.013582,-0.029340,-0.128287
15.029126,0.005064,-0.027186,-0.126164
15.039166,0.005046,-0.032516,-0.128325
15.049176,0.006133,-0.027200,-0.124024
15.059216,-0.000267,-0.026086,-0.129378
15.079266,0.011453,-0.028265,-0.128288
15.079266,0.011453,-0.028265,-0.128288
15.089307,0.001880,-0.020753,-0.129347
15.099316,0.004001,-0.025037,-0.128293
15.109357,0.008259,-0.023958,-0.133617
15.119366,0.006144,-0.020772,-0.128267
15.129407,0.005063,-0.022874,-0.134689
15.139416,0.009351,-0.014350,-0.133569
15.149457,0.000816,-0.017526,-0.133607
15.159466,0.005082,-0.015394,-0.135722
15.169507,0.006157,-0.012193,-0.135704
15.179547,0.005063,-0.020718,-0.138952
15.189557,0.015718,-0.021821,-0.138928
15.199597,0.005090,-0.008956,-0.142101
15.219647,0.011444,-0.022849,-0.144285
15.229657,0.006135,-0.015357,-0.144265
15.239697,0.013574,-0.023929,-0.143216
15.249737,0.011435,-0.024975,-0.146432
15.259747,0.014634,-0.024991,-0.145355
15.269787,0.013568,-0.024987,-0.145358
15.289838,0.013559,-0.028191,-0.145373
15.299847,0.013541,-0.031364,-0.151797
15.309888,0.016743,-0.031390,-0.148584
15.319897,0.015663,-0.034575,-0.151807
15.329938,0.016737,-0.033526,-0.148594
15.339978,0.016737,-0.033526,-0.148594
15.349988,0.017789,-0.037796,-0.149680
15.360028,0.019914,-0.039934,-0.150752
15.370038,0.022066,-0.033543,-0.148579
15.380078,0.026309,-0.041032,-0.148603
15.390088,0.022069,-0.031397,-0.150706
15.400128,0.030562,-0.042094,-0.152869
15.410168,0.027371,-0.042104,-0.148605
15.420178,0.021000,-0.031383,-0.152845
15.430218,0.026307,-0.039949,-0.151803
15.440228,0.026301,-0.042085,-0.151813
15.450268,0.023128,-0.032458,-0.152844
15.460278,0.025235,-0.042082,-0.151816
15.470318,0.025234,-0.038848,-0.158210
15.480328,0.018853,-0.034560,-0.157139
15.500409,0.020959,-0.040949,-0.162504
15.510419,0.019911,-0.037772,-0.156083
15.520459,0.011368,-0.040923,-0.161462
15.530469,0.018848,-0.034545,-0.160343
15.540509,0.013504,-0.038789,-0.162515
15.550519,0.017767,-0.037725,-0.164634
15.570599,0.026272,-0.046301,-0.163583
15.580609,0.019934,-0.027073,-0.160305
15.590649,0.012459,-0.030232,-0.164613
15.600659,0.032675,-0.042040,-0.165682
15.610699,0.014610,-0.024915,-0.161378
15.620709,0.015647,-0.032368,-0.166751
15.640759,0.009280,-0.022741,-0.165655
15.640759,0.009280,-0.022741,-0.165655
15.650799,0.008183,-0.033412,-0.166777
15.660887,0.011378,-0.033412,-0.168904
15.670897,0.007126,-0.030205,-0.166764
15.680937,0.001793,-0.030172,-0.169984
15.690947,0.006050,-0.032322,-0.169982
15.710997,0.001776,-0.035507,-0.171077
15.721037,0.010298,-0.035519,-0.174258
15.731077,0.006035,-0.036584,-0.172139
15.741087,0.007092,-0.038713,-0.174282
15.751127,0.007109,-0.032305,-0.174252
15.761137,0.014536,-0.044072,-0.175355
15.781187,0.009232,-0.033360,-0.178524
15.791227,0.023049,-0.046210,-0.180683
15.801237,0.014548,-0.038722,-0.177466
15.811277,0.011352,-0.034409,-0.183864
15.821318,0.019857,-0.044064,-0.180682
15.831327,0.011331,-0.044036,-0.180705
15.851377,0.011354,-0.035492,-0.180665
15.861418,0.015573,-0.049369,-0.184991
15.871428,0.021994,-0.040857,-0.182797
15.881468,0.025219,-0.033412,-0.178480
15.891508,0.017694,-0.053653,-0.183938
15.901518,0.034771,-0.041936,-0.189176
15.921568,0.037963,-0.051623,-0.175326
15.931608,0.062496,-0.042071,-0.179486
15.941618,0.069976,-0.041078,-0.168779
15.951658,0.071027,-0.045343,-0.170932
15.961668,0.082781,-0.031473,-0.176175
15.971708,0.088081,-0.043248,-0.174080
16.001799,0.078492,-0.039997,-0.177296
16.001799,0.078492,-0.039997,-0.177296
16.011808,0.069986,-0.030338,-0.181546
16.021849,0.068937,-0.021771,-0.185782
16.031858,0.063588,-0.030307,-0.183700
16.041899,0.058269,-0.023857,-0.189026
16.051939,0.056145,-0.018490,-0.193279
16.061949,0.050797,-0.024876,-0.194392
16.071989,0.049732,-0.022721,-0.197590
16.081999,0.042276,-0.018400,-0.202931
16.092039,0.045448,-0.028027,-0.201899
16.102049,0.048641,-0.029100,-0.202964
16.112089,0.039056,-0.023704,-0.208306
16.132139,0.054991,-0.041905,-0.209416
16.142179,0.043309,-0.024765,-0.212572
16.152189,0.042220,-0.031149,-0.216878
16.162230,0.044336,-0.038647,-0.213703
16.172239,0.034761,-0.031130,-0.215830
16.182280,0.040072,-0.035399,-0.220109
16.202330,0.018764,-0.029970,-0.224415
16.212370,0.025134,-0.038529,-0.225506
16.222380,0.016620,-0.033156,-0.226572
16.232420,0.005961,-0.033117,-0.227670
16.242430,0.002754,-0.034154,-0.231956
16.252470,0.002757,-0.034164,-0.229820
16.272520,-0.002556,-0.025578,-0.235135
16.282530,-0.002562,-0.029870,-0.230882
16.292570,-0.008962,-0.031985,-0.230910
16.302610,0.000647,-0.024531,-0.232985
16.312620,-0.001491,-0.029889,-0.227675
16.322660,0.000640,-0.029896,-0.227669
16.342710,0.014473,-0.039562,-0.225540
16.352720,0.009175,-0.028871,-0.224436
16.362761,0.018756,-0.031022,-0.227624
16.372801,0.022991,-0.044950,-0.221269
16.382811,0.012365,-0.031012,-0.225506
16.392851,0.014489,-0.033149,-0.226578
16.402861,0.020842,-0.048121,-0.226631
16.412901,0.015541,-0.037420,-0.227664
16.422911,0.018712,-0.044885,-0.231963
16.432951,0.016581,-0.043805,-0.233032
16.442961,0.011243,-0.045914,-0.235193
16.453001,0.017621,-0.052342,-0.235206
16.463041,0.017621,-0.048035,-0.242663
16.483091,0.021858,-0.056582,-0.244828
16.483091,0.021858,-0.056582,-0.244828
16.503141,0.030379,-0.057673,-0.245878
16.513151,0.029325,-0.051241,-0.250123
16.523191,0.036751,-0.061930,-0.253358
16.523191,0.036751,-0.061930,-0.253358
16.543241,0.037844,-0.052322,-0.253309
16.563292,0.049531,-0.065170,-0.254406
16.563292,0.049531,-0.065170,-0.254406
16.573332,0.045285,-0.054441,-0.261845
16.583342,0.053811,-0.055542,-0.260758
16.603392,0.047440,-0.044827,-0.263930
16.603392,0.047440,-0.044827,-0.263930
16.613432,0.049535,-0.057644,-0.265053
16.643522,0.044209,-0.055481,-0.267194
16.653532,0.039998,-0.036244,-0.267114
16.653532,0.039998,-0.036244,-0.267114
16.663573,0.042112,-0.042659,-0.267139
16.673583,0.039969,-0.045845,-0.269296
16.683623,0.034671,-0.035154,-0.268192
16.703673,0.033589,-0.040485,-0.269288
16.703673,0.033589,-0.040485,-0.269288
16.723723,0.045292,-0.049076,-0.267160
16.723723,0.045292,-0.049076,-0.267160
16.733764,0.038930,-0.037308,-0.267122
16.743773,0.039963,-0.049059,-0.267175
16.753814,0.047425,-0.048010,-0.268218
16.783904,0.043161,-0.049070,-0.267166
16.783904,0.043161,-0.049070,-0.267166
16.793914,0.031458,-0.042634,-0.265032
16.803954,0.043149,-0.053341,-0.267186
16.813964,0.038935,-0.035173,-0.267112
16.824004,0.030343,-0.058634,-0.268315
16.854095,0.031413,-0.055419,-0.271502
16.854095,0.031413,-0.055419,-0.271502
16.864104,0.031445,-0.044750,-0.269315
16.874145,0.017609,-0.037224,-0.270385
16.894195,0.025055,-0.042588,-0.270390
16.914245,0.027164,-0.050065,-0.271488
16.914245,0.027164,-0.050065,-0.271488
16.924254,0.019730,-0.039352,-0.273594
16.934295,0.021865,-0.039369,-0.271452
16.944335,0.034632,-0.046881,-0.272520
16.954345,0.026134,-0.037247,-0.271430
16.964385,0.025064,-0.040462,-0.268244
16.994445,0.033596,-0.038354,-0.268210
16.994445,0.033596,-0.038354,-0.268210
17.004485,0.033600,-0.035135,-0.271400
17.014525,0.038934,-0.036246,-0.266049
17.024535,0.033604,-0.037301,-0.265001
17.034575,0.040000,-0.035171,-0.268177
17.064635,0.035743,-0.034099,-0.266048
17.064635,0.035743,-0.034099,-0.266048
17.074676,0.044236,-0.048025,-0.262885
17.084685,0.035724,-0.041580,-0.265015
17.094726,0.038939,-0.035183,-0.264976
17.104766,0.035711,-0.046925,-0.263972
17.134826,0.041030,-0.052297,-0.260778
17.134826,0.041030,-0.052297,-0.260778
17.144866,0.045286,-0.056597,-0.257582
17.154876,0.054856,-0.065177,-0.256528
17.164916,0.050617,-0.056620,-0.256499
17.174956,0.056988,-0.066262,-0.254391
17.184966,0.075070,-0.079131,-0.255470
17.195006,0.074035,-0.068453,-0.254354
17.205016,0.082542,-0.074884,-0.255429
17.215056,0.089960,-0.089854,-0.256548
17.225066,0.086808,-0.072751,-0.257544
17.235106,0.079325,-0.080198,-0.258668
17.245116,0.082530,-0.075921,-0.261843
17.265197,0.075045,-0.082284,-0.266167
17.265197,0.075045,-0.082284,-0.266167
17.275207,0.067636,-0.063032,-0.267165
17.285247,0.061229,-0.065127,-0.271465
17.295257,0.062287,-0.067261,-0.272540
17.305297,0.054850,-0.058694,-0.272520
17.315307,0.055905,-0.061896,-0.273601
17.345397,0.049516,-0.059739,-0.273608
17.345397,0.049516,-0.059739,-0.273608
17.355437,0.043159,-0.044757,-0.275692
17.365447,0.048483,-0.047989,-0.273556
17.375487,0.047408,-0.051189,-0.273574
17.385497,0.042106,-0.042638,-0.271412
17.415587,0.049578,-0.039469,-0.269239
17.415587,0.049578,-0.039469,-0.269239
17.425628,0.043197,-0.034103,-0.270300
17.435637,0.043172,-0.043720,-0.269277
17.445678,0.044247,-0.041598,-0.267128
17.455688,0.040004,-0.034108,-0.267104
17.475738,0.037855,-0.040509,-0.267140
17.475738,0.037855,-0.040509,-0.267140
17.485778,0.041058,-0.037305,-0.269253
17.495818,0.036797,-0.039453,-0.263934
17.505828,0.032521,-0.041554,-0.268228
17.515868,0.037843,-0.043702,-0.269292
17.525878,0.038906,-0.045852,-0.267163
17.545928,0.039958,-0.049044,-0.270380
17.545928,0.039958,-0.049044,-0.270380
17.555968,0.034635,-0.046891,-0.270384
17.565978,0.035704,-0.044748,-0.272507
17.576018,0.036777,-0.043699,-0.269295
17.586059,0.038877,-0.051146,-0.276802
17.596068,0.047403,-0.054403,-0.271453
17.606109,0.037826,-0.046881,-0.274648
17.616118,0.037821,-0.046866,-0.277853
17.626159,0.045259,-0.056511,-0.275741
17.636168,0.037814,-0.048997,-0.278931
17.646209,0.039950,-0.046863,-0.279983
17.656298,0.043143,-0.050092,-0.276785
17.666308,0.035682,-0.047912,-0.281068
17.696398,0.034638,-0.040438,-0.279967
17.696398,0.034638,-0.040438,-0.279967
17.706408,0.038912,-0.036175,-0.281004
17.716448,0.032491,-0.045765,-0.281067
17.726458,0.042093,-0.042598,-0.279957
17.736498,0.027221,-0.026546,-0.276718
17.766589,0.022948,-0.028657,-0.278876
17.766589,0.022948,-0.028657,-0.278876
17.776598,0.028210,-0.054315,-0.276846
17.786639,0.031471,-0.031904,-0.275663
17.796648,0.024016,-0.029744,-0.275673
17.806689,0.039939,-0.054368,-0.273609
17.836779,0.033579,-0.041533,-0.273566
17.836779,0.033579,-0.041533,-0.273566
17.846789,0.035740,-0.030860,-0.273510
17.856829,0.034654,-0.039410,-0.271417
17.866839,0.032534,-0.034054,-0.273534
17.876879,0.038924,-0.036215,-0.272458
17.896929,0.031466,-0.036196,-0.271410
17.896929,0.031466,-0.036196,-0.271410
17.906969,0.034651,-0.039400,-0.273553
17.916979,0.029353,-0.028709,-0.272449
17.927019,0.028275,-0.032977,-0.272472
17.937029,0.031458,-0.037249,-0.274620
17.947070,0.030423,-0.026571,-0.273504
17.967120,0.035721,-0.038341,-0.272477
17.977160,0.025093,-0.028705,-0.270324
17.987170,0.027211,-0.032978,-0.271407
17.997210,0.032537,-0.034064,-0.271397
18.007220,0.041051,-0.040514,-0.268200
18.017260,0.028306,-0.023381,-0.269222
18.037310,0.044251,-0.040535,-0.266055
18.037310,0.044251,-0.040535,-0.266055
18.047320,0.034704,-0.023412,-0.267068
18.057360,0.038943,-0.034120,-0.263902
18.067400,0.043202,-0.036275,-0.262833
18.077410,0.043231,-0.024517,-0.264913
18.087450,0.043207,-0.035212,-0.261759
18.117510,0.043208,-0.035217,-0.260691
18.117510,0.043208,-0.035217,-0.260691
18.127551,0.036852,-0.022391,-0.258512
18.137591,0.041097,-0.027734,-0.260662
18.147601,0.046410,-0.034164,-0.259609
18.157641,0.038961,-0.029868,-0.259609
18.197741,0.041101,-0.028823,-0.256394
18.197741,0.041101,-0.028823,-0.256394
18.207751,0.045352,-0.032030,-0.258534
18.217791,0.046421,-0.034200,-0.252132
18.227831,0.041105,-0.027760,-0.255321
18.237841,0.050663,-0.039533,-0.256418
18.247881,0.052816,-0.034221,-0.252114
18.257891,0.043232,-0.029908,-0.254257
18.267931,0.050679,-0.036349,-0.252130
18.277941,0.050674,-0.037412,-0.253204
18.287981,0.050694,-0.032088,-0.249974
18.298022,0.055995,-0.042790,-0.248941
18.308031,0.048548,-0.038499,-0.247873
18.318072,0.042157,-0.036337,-0.248949
18.328082,0.037903,-0.034197,-0.246814
18.338122,0.041094,-0.036344,-0.246816
18.348132,0.045352,-0.039571,-0.244683
18.358172,0.036845,-0.033141,-0.243608
18.368182,0.040023,-0.039554,-0.244697
18.398272,0.036826,-0.042778,-0.238312
18.398272,0.036826,-0.042778,-0.238312
18.408312,0.041101,-0.038520,-0.238280
18.418322,0.037907,-0.038520,-0.236153
18.428362,0.040036,-0.040673,-0.234020
18.438372,0.043245,-0.037489,-0.231860
18.458453,0.041101,-0.042827,-0.230823
18.468462,0.038990,-0.037501,-0.226531
18.478503,0.031531,-0.036404,-0.227615
18.488512,0.040036,-0.044980,-0.226563
18.498553,0.033672,-0.034285,-0.225462
18.508562,0.030465,-0.037478,-0.225486
18.528613,0.025162,-0.028922,-0.224392
18.538653,0.030464,-0.039629,-0.222292
18.548693,0.036855,-0.041791,-0.221216
18.558703,0.021975,-0.026791,-0.221186
18.568743,0.030454,-0.043906,-0.221244
18.578753,0.032610,-0.036447,-0.219066
18.598803,0.031531,-0.041789,-0.218026
18.608843,0.025168,-0.030021,-0.217988
18.618884,0.028348,-0.036439,-0.218010
18.628893,0.031535,-0.040726,-0.216953
18.638934,0.021992,-0.023613,-0.215830
18.648943,0.029405,-0.039646,-0.218022
18.669008,0.020919,-0.026818,-0.214780
18.679049,0.020901,-0.033226,-0.214810
18.689058,0.019835,-0.034300,-0.212682
18.699099,0.019839,-0.031081,-0.215871
18.709139,0.019843,-0.032170,-0.211604
18.719149,0.017707,-0.033226,-0.212683
18.739199,0.018774,-0.034312,-0.209480
18.739199,0.018774,-0.034312,-0.209480
18.749239,0.019834,-0.036451,-0.209487
18.759249,0.021977,-0.034338,-0.206267
18.769289,0.018782,-0.033259,-0.206271
18.779329,0.018774,-0.034312,-0.209480
18.789339,0.024106,-0.036491,-0.204135
18.809389,0.032632,-0.037596,-0.201980
18.819430,0.025180,-0.034368,-0.201985
18.829439,0.024105,-0.039720,-0.198809
18.839480,0.031570,-0.038681,-0.197715
18.849489,0.025192,-0.031175,-0.199834
18.859530,0.027300,-0.041876,-0.196674
18.879580,0.018809,-0.030111,-0.194505
18.889620,0.017717,-0.040797,-0.192422
18.899630,0.027322,-0.034406,-0.195570
18.909670,0.024147,-0.028003,-0.192344
18.919680,0.016655,-0.037575,-0.195615
18.929720,0.020951,-0.026919,-0.193416
18.949770,0.024129,-0.033332,-0.194506
18.959810,0.022011,-0.030137,-0.191292
18.969820,0.017743,-0.030108,-0.194508
18.979860,0.020949,-0.029071,-0.190222
18.989870,0.025211,-0.029079,-0.191278
18.999910,0.025215,-0.026938,-0.192336
19.009920,0.027340,-0.031232,-0.189146
19.019961,0.027352,-0.026961,-0.189126
19.030001,0.025211,-0.030157,-0.189147
19.040011,0.029488,-0.025905,-0.188047
19.050051,0.027354,-0.028044,-0.185926
19.060061,0.030538,-0.032321,-0.187006
19.070101,0.029499,-0.023784,-0.184832
19.090151,0.036934,-0.033425,-0.183789
19.100191,0.024166,-0.026986,-0.181657
19.110201,0.034799,-0.036637,-0.180605
19.120241,0.030565,-0.027021,-0.178435
19.130251,0.025236,-0.027004,-0.178450
19.140291,0.034811,-0.034521,-0.176322
19.160341,0.027365,-0.030235,-0.174186
19.170351,0.030562,-0.032397,-0.170983
19.180391,0.028443,-0.027045,-0.172032
19.190432,0.026318,-0.025980,-0.169896
19.200441,0.027366,-0.033469,-0.167792
19.210482,0.028451,-0.025992,-0.168822
19.230532,0.029488,-0.037753,-0.166738
19.240542,0.023123,-0.025980,-0.167768
19.250582,0.024178,-0.031333,-0.165654
19.260622,0.019907,-0.033450,-0.166745
19.270632,0.019924,-0.029194,-0.163520
19.280672,0.020976,-0.034542,-0.162474
19.310732,0.017800,-0.027056,-0.162447
19.310732,0.017800,-0.027056,-0.162447
19.320772,0.025246,-0.033498,-0.160321
19.330782,0.026310,-0.033496,-0.161386
19.340822,0.013550,-0.023853,-0.159239
19.350863,0.024182,-0.033499,-0.159255
19.360872,0.019929,-0.030287,-0.158184
19.370913,0.015667,-0.031356,-0.154996
19.380922,0.022056,-0.032435,-0.157120
19.390963,0.011426,-0.023872,-0.153904
19.400972,0.018859,-0.033502,-0.154997
19.411013,0.018881,-0.027110,-0.151762
19.421023,0.012482,-0.028152,-0.152853
19.441103,0.011434,-0.023897,-0.148563
19.451113,0.016753,-0.028191,-0.147501
19.461153,0.018870,-0.033538,-0.147520
19.471163,0.009312,-0.023921,-0.142160
19.481203,0.019933,-0.036765,-0.143259
19.491213,0.015698,-0.026067,-0.144289
19.511294,0.016741,-0.035692,-0.142195
19.521303,0.014643,-0.022865,-0.143208
19.531344,0.013568,-0.027143,-0.141095
19.541353,0.017811,-0.034633,-0.141119
19.551394,0.013577,-0.023939,-0.141080
19.561403,0.022080,-0.033589,-0.138966
19.581453,0.010381,-0.022856,-0.142152
19.591494,0.021020,-0.031449,-0.138958
19.601534,0.013582,-0.025033,-0.135744
19.611544,0.016773,-0.025023,-0.140008
19.621584,0.023168,-0.027200,-0.135728
19.631594,0.018905,-0.027186,-0.135739
19.641634,0.016790,-0.020766,-0.136783
19.651644,0.021029,-0.029324,-0.136812
19.661710,0.016789,-0.022917,-0.133589
19.671750,0.017851,-0.023989,-0.133591
19.681760,0.018911,-0.026128,-0.133598
19.691800,0.014662,-0.022926,-0.130390
19.701810,0.018908,-0.027196,-0.133603
19.721860,0.019976,-0.029361,-0.128269
19.731901,0.021047,-0.028301,-0.127193
19.741910,0.017863,-0.024024,-0.126113
19.751951,0.016782,-0.029360,-0.126142
19.761991,0.021055,-0.028326,-0.121852
19.772001,0.021056,-0.027253,-0.122915
19.792051,0.018916,-0.031528,-0.120805
19.802091,0.019990,-0.027250,-0.122918
19.812101,0.017865,-0.027263,-0.118651
19.822141,0.015720,-0.031523,-0.119746
19.832181,0.016791,-0.028313,-0.121864
19.842191,0.011473,-0.027253,-0.116532
19.862241,0.015736,-0.026188,-0.118652
19.872281,0.010413,-0.024035,-0.118657
19.882291,0.008282,-0.024028,-0.118662
19.892331,0.015738,-0.025115,-0.119715
19.902341,0.005090,-0.022960,-0.116530
19.912382,0.004034,-0.017602,-0.119712
19.932432,0.007232,-0.019768,-0.115441
19.942472,0.008286,-0.021887,-0.119721
19.952482,0.017887,-0.018715,-0.119679
19.962522,0.008277,-0.026169,-0.117604
19.972532,0.008296,-0.017611,-0.120768
19.982572,0.018941,-0.022990,-0.119696
20.002622,0.010427,-0.016540,-0.122894
20.012662,0.020005,-0.022988,-0.120762
20.022672,0.012522,-0.030435,-0.121886
20.032712,0.010423,-0.017602,-0.123967
20.042722,0.013614,-0.019749,-0.123969
20.052762,0.011453,-0.033650,-0.118699
20.072812,0.012545,-0.022964,-0.120782
20.082853,0.006131,-0.030424,-0.119767
20.092863,0.016785,-0.029370,-0.124005
20.102903,0.009358,-0.019755,-0.119707
20.112913,0.006125,-0.032560,-0.119777
20.122953,0.012536,-0.026168,-0.120797
20.143003,0.008264,-0.030436,-0.118693
20.153043,0.019998,-0.027275,-0.117577
20.163053,0.011480,-0.026195,-0.114391
20.173093,0.012532,-0.029387,-0.117608
20.183103,0.021076,-0.024085,-0.115423
20.193143,0.014664,-0.031550,-0.113339
20.213193,0.018951,-0.023020,-0.113287
20.223203,0.014655,-0.035832,-0.111223
20.233243,0.019999,-0.029431,-0.113315
20.243284,0.016810,-0.027295,-0.111177
20.253293,0.014648,-0.040119,-0.108039
20.253293,0.014648,-0.040119,-0.108039
20.263334,0.013615,-0.027290,-0.110117
20.293394,0.017871,-0.030513,-0.109053
20.293394,0.017871,-0.030513,-0.109053
20.303434,0.013614,-0.029441,-0.106923
20.323484,0.011503,-0.023037,-0.104762
20.333524,0.009337,-0.034772,-0.105892
20.343534,0.007213,-0.032634,-0.104819
20.343534,0.007213,-0.032634,-0.104819
20.353574,0.007231,-0.026227,-0.104789
20.363584,0.009339,-0.034777,-0.104824
20.373624,0.004028,-0.029430,-0.102677
20.393674,0.007219,-0.030498,-0.104809
20.393674,0.007219,-0.030498,-0.104809
20.403715,0.004014,-0.033697,-0.103765
20.443815,0.009349,-0.030500,-0.105872
20.443815,0.009349,-0.030500,-0.105872
20.453824,0.002962,-0.028349,-0.104811
20.463865,0.006147,-0.032631,-0.104822
20.473905,0.002966,-0.025130,-0.108000
20.493955,0.002947,-0.032610,-0.106967
20.493955,0.002947,-0.032610,-0.106967
20.503965,0.001898,-0.025121,-0.109071
20.514005,0.002947,-0.032610,-0.106967
20.524015,0.001879,-0.032602,-0.108039
20.544065,-0.001312,-0.030455,-0.108037
20.564145,0.004029,-0.026201,-0.108002
20.564145,0.004029,-0.026201,-0.108002
20.574155,0.006150,-0.029407,-0.109080
20.584196,0.006150,-0.031563,-0.104817
20.594205,0.005090,-0.027267,-0.109073
20.604246,0.008296,-0.025152,-0.106917
20.614255,0.008276,-0.032627,-0.106953
20.644346,0.011481,-0.030507,-0.105866
20.644346,0.011481,-0.030507,-0.105866
20.654386,0.012557,-0.027312,-0.104779
20.664425,0.006166,-0.025150,-0.105855
20.674465,0.008283,-0.030497,-0.105875
20.684475,0.009364,-0.025160,-0.105846
20.704525,0.006159,-0.028359,-0.104802
20.704525,0.006159,-0.028359,-0.104802
20.714565,0.002966,-0.026208,-0.105869
20.724605,0.007220,-0.029425,-0.105872
20.744655,0.004020,-0.030483,-0.105886
20.744655,0.004020,-0.030483,-0.105886
20.754665,0.008291,-0.028366,-0.104796
20.774715,0.008279,-0.031560,-0.106948
20.774715,0.008279,-0.031560,-0.106948
20.784756,0.008292,-0.028371,-0.103728
20.794796,0.009355,-0.029442,-0.103730
20.804806,0.010414,-0.032655,-0.102674
20.814846,0.016805,-0.032665,-0.104793
20.824856,0.012557,-0.029468,-0.100517
20.844906,0.013619,-0.030534,-0.101587
20.844906,0.013619,-0.030534,-0.101587
20.854946,0.011480,-0.032658,-0.102671
20.864956,0.010426,-0.029461,-0.100523
20.874996,0.012553,-0.030531,-0.101590
20.885036,0.013617,-0.031607,-0.100524
20.895046,0.008288,-0.031590,-0.100539
20.925136,0.011474,-0.035872,-0.100550
20.925136,0.011474,-0.035872,-0.100550
20.935146,0.007238,-0.025174,-0.101579
20.945186,0.017870,-0.033742,-0.103727
20.955227,0.013616,-0.032680,-0.099461
20.965236,0.010420,-0.030519,-0.102664
20.995327,0.015759,-0.028415,-0.099435
20.995327,0.015759,-0.028415,-0.099435
21.005337,0.014668,-0.036950,-0.100546
21.015377,0.018953,-0.028416,-0.101562
21.025387,0.018948,-0.031630,-0.099441
21.035427,0.020005,-0.033759,-0.101585
21.065517,0.015757,-0.030561,-0.097308
21.065517,0.015757,-0.030561,-0.097308
21.075527,0.021071,-0.034840,-0.099450
21.095577,0.012549,-0.032672,-0.100532
21.095577,0.012549,-0.032672,-0.100532
21.105617,0.017879,-0.031616,-0.101580
21.125667,0.013619,-0.031612,-0.099456
21.125667,0.013619,-0.031612,-0.099456
21.135708,0.011486,-0.031600,-0.100530
21.145717,0.015736,-0.035881,-0.101607
21.155758,0.013626,-0.029481,-0.098377
21.165767,0.010414,-0.033733,-0.100543
21.175808,0.016803,-0.036967,-0.098404
21.205898,0.018933,-0.036969,-0.099466
21.205898,0.018933,-0.036969,-0.099466
21.215908,0.021071,-0.034840,-0.099450
21.225948,0.013623,-0.028393,-0.102645
21.235958,0.013617,-0.031607,-0.100524
21.245998,0.016813,-0.032691,-0.099452
21.266048,0.012556,-0.030541,-0.099454
21.266048,0.012556,-0.030541,-0.099454
21.276089,0.015743,-0.033750,-0.100528
21.286098,0.007236,-0.026242,-0.101584
21.296139,0.014690,-0.028402,-0.101574
21.306148,0.008295,-0.028381,-0.101592
21.316189,0.017879,-0.031616,-0.101580
21.346248,0.008298,-0.027313,-0.101587
21.346248,0.008298,-0.027313,-0.101587
21.356289,0.010439,-0.024116,-0.101566
21.366329,0.015765,-0.026280,-0.099425
21.376339,0.011497,-0.027329,-0.100510
21.386379,0.011503,-0.025193,-0.100499
21.406429,0.008301,-0.026245,-0.101581
21.416439,0.010437,-0.025189,-0.100502
21.426479,0.013627,-0.027330,-0.101572
21.436519,0.008294,-0.029454,-0.100528
21.446529,0.011494,-0.028396,-0.100515
21.456569,0.008299,-0.028391,-0.099455
21.486629,0.012559,-0.029473,-0.099449
21.496670,0.008307,-0.025187,-0.099440
21.506679,0.008306,-0.026260,-0.098377
21.516720,0.014685,-0.031616,-0.099453
21.526760,0.009372,-0.026264,-0.098374
21.536770,0.007240,-0.025179,-0.100511
21.546810,0.013629,-0.028414,-0.098372
21.556820,0.013622,-0.031622,-0.097319
21.566860,0.009375,-0.025196,-0.098369
21.576870,0.013635,-0.026278,-0.098362
21.586910,0.013628,-0.029487,-0.097309
21.596950,0.008322,-0.020926,-0.097283
21.617000,0.012568,-0.027347,-0.097302
21.617000,0.012568,-0.027347,-0.097302
21.627010,0.010445,-0.024136,-0.097293
21.637050,0.008320,-0.023072,-0.095157
21.647060,0.012568,-0.027347,-0.097302
21.657100,0.013642,-0.026298,-0.094089
21.667131,0.009381,-0.025216,-0.094096
21.687212,0.006185,-0.024133,-0.095168
21.697222,0.009386,-0.024153,-0.093023
21.707262,0.009379,-0.027362,-0.091970
21.717272,0.009383,-0.025221,-0.093028
21.727312,0.009376,-0.029508,-0.089844
21.737322,0.010449,-0.025225,-0.093025
21.747362,0.009380,-0.027367,-0.090902
21.757402,0.010445,-0.028444,-0.089836
21.767412,0.014708,-0.028457,-0.089824
21.777452,0.010452,-0.027391,-0.086626
21.787462,0.012578,-0.028456,-0.088762
21.797502,0.013644,-0.028459,-0.088759
21.807512,0.008328,-0.024175,-0.087685
21.817552,0.012579,-0.028461,-0.087693
21.827562,0.006205,-0.022042,-0.085544
21.837602,0.010449,-0.028459,-0.086631
21.847643,0.011530,-0.023123,-0.086603
21.857652,0.009391,-0.026325,-0.085556
21.867693,0.011524,-0.025258,-0.086613
21.877703,0.013659,-0.025276,-0.084471
21.887743,0.009403,-0.023131,-0.083404
21.897753,0.009397,-0.023111,-0.087677
21.907793,0.011533,-0.023133,-0.084466
21.917833,0.012585,-0.026325,-0.087683
21.927843,0.013660,-0.024203,-0.085534
21.937883,0.009385,-0.027382,-0.087697
21.947893,0.008330,-0.024180,-0.086617
21.967943,0.007270,-0.022041,-0.086609
21.967943,0.007270,-0.022041,-0.086609
21.977983,0.011518,-0.027394,-0.086623
21.987993,0.007261,-0.025245,-0.086625
21.998033,0.006199,-0.023100,-0.087686
22.008074,0.006183,-0.028435,-0.088779
22.018083,0.005136,-0.022029,-0.087684
22.038133,0.006188,-0.027372,-0.087706
22.048174,0.008325,-0.025243,-0.087690
22.068224,0.010451,-0.026308,-0.089825
22.068224,0.010451,-0.026308,-0.089825
22.078264,0.004066,-0.024166,-0.086628
22.088274,0.009392,-0.024174,-0.088750
22.098314,0.011517,-0.027389,-0.087691
22.108324,0.011520,-0.026321,-0.087686
22.118364,0.012597,-0.022053,-0.087663
22.128374,0.012590,-0.025262,-0.086610
22.138414,0.012588,-0.025257,-0.087678
22.148424,0.014727,-0.023133,-0.086594
22.158464,0.014724,-0.024201,-0.086599
22.178514,0.018979,-0.027419,-0.086603
22.178514,0.018979,-0.027419,-0.086603
22.188555,0.011532,-0.024206,-0.083403
22.198564,0.012587,-0.027408,-0.084484
22.208605,0.010457,-0.026328,-0.085553
22.218614,0.006194,-0.026314,-0.085564
22.228655,0.011527,-0.025269,-0.084477
22.248705,0.008324,-0.026316,-0.086627
22.248705,0.008324,-0.026316,-0.086627
22.258745,0.011523,-0.026331,-0.085550
22.268755,0.011517,-0.028467,-0.085560
22.278795,0.015790,-0.025282,-0.084465
22.288805,0.016847,-0.028490,-0.084477
22.298845,0.016846,-0.029563,-0.083414
22.308855,0.011517,-0.028467,-0.085560
22.318895,0.013653,-0.026333,-0.086612
22.328935,0.012587,-0.027408,-0.084484
22.338945,0.011517,-0.027389,-0.087691
22.348985,0.015774,-0.030617,-0.085558
22.358995,0.006189,-0.027377,-0.086638
22.369036,0.009394,-0.025257,-0.085551
22.389086,0.004054,-0.026282,-0.090911
22.399126,0.010445,-0.029522,-0.087704
22.409136,0.005131,-0.024165,-0.087694
22.419176,0.005113,-0.029494,-0.089855
22.429186,0.005125,-0.026301,-0.087704
22.439226,0.007258,-0.026313,-0.086630
22.459276,0.012581,-0.027388,-0.088757
22.469286,0.013651,-0.027406,-0.085549
22.479326,0.012597,-0.022053,-0.087663
22.489366,0.014717,-0.027410,-0.085546
22.499376,0.013659,-0.025276,-0.084471
22.509416,0.017923,-0.024216,-0.085522
22.529466,0.009393,-0.026330,-0.084487
22.529466,0.009393,-0.026330,-0.084487
22.539476,0.015795,-0.023142,-0.085523
22.549517,0.014728,-0.025289,-0.082331
22.559557,0.014713,-0.029551,-0.084488
22.569567,0.009401,-0.023126,-0.084472
22.579607,0.011516,-0.030618,-0.082365
22.609667,0.007264,-0.026333,-0.082357
22.619707,0.015773,-0.031690,-0.084495
22.629717,0.009397,-0.025267,-0.083414
22.639757,0.008324,-0.027394,-0.084495
22.649797,0.016849,-0.028495,-0.083409
22.659807,0.012590,-0.027418,-0.082347
22.669874,0.011523,-0.026331,-0.085550
22.679884,0.012589,-0.027413,-0.083416
22.689924,0.010465,-0.025275,-0.082343
22.699934,0.012591,-0.025267,-0.085542
22.709974,0.010464,-0.024197,-0.084474
22.720015,0.009387,-0.027387,-0.086629
22.740065,0.009394,-0.025257,-0.085551
22.750075,0.010455,-0.026323,-0.086621
22.760115,0.009400,-0.023121,-0.085540
22.770125,0.008331,-0.023107,-0.087680
22.780165,0.010457,-0.026328,-0.085553
22.790175,0.014726,-0.023128,-0.087662
22.810255,0.012582,-0.027393,-0.087688
22.820265,0.004081,-0.018827,-0.086603
22.830305,0.006192,-0.026309,-0.086633
22.840315,0.003009,-0.020959,-0.086616
22.850355,-0.000190,-0.020944,-0.087693
22.860365,0.002995,-0.026299,-0.086641
22.870405,-0.000186,-0.020954,-0.085557
22.880446,0.003002,-0.024168,-0.085563
22.890455,-0.000191,-0.023095,-0.084499
22.900496,0.004064,-0.026312,-0.084502
22.910505,0.001948,-0.020971,-0.083414
22.920546,0.007254,-0.028453,-0.085572
22.930555,0.009396,-0.026340,-0.082351
22.950606,0.008323,-0.028467,-0.083432
22.960646,0.006193,-0.028465,-0.082370
22.970686,0.008324,-0.028472,-0.082364
22.980696,0.007259,-0.029547,-0.080236
22.990736,0.007257,-0.029542,-0.081304
23.000746,0.012579,-0.031690,-0.082368
23.010786,0.009384,-0.030611,-0.082371
23.020796,0.008318,-0.029530,-0.084506
23.030836,0.007257,-0.028464,-0.083435
23.040877,0.006173,-0.034868,-0.083469
23.050886,0.007251,-0.029521,-0.085577
23.060927,0.012567,-0.035961,-0.082388
23.070936,0.005119,-0.029514,-0.085583
23.090986,0.007249,-0.030594,-0.084514
23.101027,0.007248,-0.029511,-0.087713
23.111036,0.014703,-0.032749,-0.085571
23.121077,0.009376,-0.029508,-0.089844
23.131117,0.011501,-0.033802,-0.086653
23.141127,0.010440,-0.030585,-0.088778
23.161177,0.001915,-0.029484,-0.089864
23.161177,0.001915,-0.029484,-0.089864
23.171217,0.006179,-0.029498,-0.089852
23.181227,0.005123,-0.027374,-0.086641
23.191267,0.008319,-0.026301,-0.089831
23.201307,0.002986,-0.028424,-0.088788
23.211317,0.002993,-0.026294,-0.087710
23.221357,0.007262,-0.024172,-0.087688
23.231367,0.007262,-0.024172,-0.087688
23.241408,0.009379,-0.029518,-0.087707
23.251417,0.007271,-0.022046,-0.085541
23.261458,0.007271,-0.022046,-0.085541
23.271467,0.010457,-0.025250,-0.087684
23.281508,0.012598,-0.024209,-0.083400
23.301558,0.012599,-0.023136,-0.084463
23.311598,0.015789,-0.026355,-0.083402
23.321608,0.009407,-0.020990,-0.084462
23.331648,0.013655,-0.027416,-0.083413
23.341658,0.012578,-0.029534,-0.086630
23.351698,0.011516,-0.030618,-0.082365
23.371748,0.007252,-0.028448,-0.086640
23.381788,0.009372,-0.032727,-0.086654
23.391798,0.006171,-0.032707,-0.088799
23.401838,0.009363,-0.034853,-0.088801
23.411848,0.006179,-0.029498,-0.089852
23.421888,0.008285,-0.038043,-0.090955
23.441939,0.007240,-0.029486,-0.093054
23.451979,0.011476,-0.039111,-0.093088
23.461989,0.009361,-0.032692,-0.094132
23.472029,0.011492,-0.032699,-0.094126
23.482039,0.013615,-0.034831,-0.096266
23.492079,0.013622,-0.032700,-0.095188
23.502089,0.010438,-0.027345,-0.096240
23.512129,0.020017,-0.032721,-0.095170
23.522169,0.010438,-0.026267,-0.098371
23.532179,0.011496,-0.029480,-0.097315
23.542219,0.013635,-0.026278,-0.098362
23.552229,0.014711,-0.023082,-0.097276
23.562269,0.005113,-0.025187,-0.097312
23.582319,0.014709,-0.025228,-0.095150
23.592329,0.005123,-0.020910,-0.098360
23.602369,0.009374,-0.026269,-0.097306
23.612410,0.008317,-0.023062,-0.097294
23.622419,0.010439,-0.026272,-0.097303
23.632460,0.006164,-0.030530,-0.097335
23.652510,0.013624,-0.031627,-0.096251
23.662535,0.011502,-0.027344,-0.097305
23.672575,0.008301,-0.029474,-0.096256
23.682615,0.012561,-0.029478,-0.098380
23.692625,0.012573,-0.026284,-0.096229
23.702665,0.008297,-0.028386,-0.100523
23.732725,0.016825,-0.028419,-0.099432
23.742765,0.009354,-0.031593,-0.100536
23.752775,0.007229,-0.027300,-0.103726
23.762815,0.020014,-0.031633,-0.099438
23.772856,0.007216,-0.031566,-0.104814
23.782865,0.008291,-0.028366,-0.104796
23.792906,0.010408,-0.034790,-0.102684
23.802915,0.007219,-0.029420,-0.106941
23.812956,0.011475,-0.032643,-0.105876
23.812956,0.011475,-0.032643,-0.105876
23.833006,0.014676,-0.030512,-0.106925
23.843046,0.008293,-0.025142,-0.109054
23.853056,0.013578,-0.040100,-0.111246
23.863096,0.017862,-0.032638,-0.111199
23.873106,0.012544,-0.028349,-0.111194
23.883146,0.009317,-0.036862,-0.115516
23.893156,0.014662,-0.031545,-0.114408
23.903196,0.013604,-0.028333,-0.115463
23.913206,0.011454,-0.032577,-0.119762
23.933287,0.009330,-0.030439,-0.118690
23.933287,0.009330,-0.030439,-0.118690
23.953337,0.019986,-0.030469,-0.119729
23.953337,0.019986,-0.030469,-0.119729
23.963346,0.009332,-0.027215,-0.122947
23.973387,0.024242,-0.032614,-0.120795
23.983396,0.019990,-0.027250,-0.122918
24.003477,0.022122,-0.027257,-0.122912
24.003477,0.022122,-0.027257,-0.122912
24.013487,0.022119,-0.029403,-0.120786
24.023527,0.017854,-0.027228,-0.126129
24.043577,0.025310,-0.030471,-0.122919
24.043577,0.025310,-0.030471,-0.122919
24.053587,0.023190,-0.025114,-0.125036
24.083677,0.027434,-0.031531,-0.126123
24.093717,0.018912,-0.030440,-0.125073
24.093717,0.018912,-0.030440,-0.125073
24.103727,0.016758,-0.036826,-0.128313
24.113767,0.024237,-0.031520,-0.126131
24.123777,0.012511,-0.030399,-0.129363
24.153868,0.012501,-0.032520,-0.132578
24.153868,0.012501,-0.032520,-0.132578
24.163908,0.021018,-0.035751,-0.132569
24.173918,0.012493,-0.034651,-0.133656
24.193968,0.015680,-0.035704,-0.138993
24.204008,0.011422,-0.033554,-0.138995
24.204008,0.011422,-0.033554,-0.138995
24.214018,0.016764,-0.028227,-0.140023
24.224058,0.015687,-0.031417,-0.142178
24.234068,0.014615,-0.032471,-0.144322
24.244108,0.023148,-0.030368,-0.143220
24.254148,0.017821,-0.029278,-0.144298
24.264158,0.027400,-0.033576,-0.145360
24.274198,0.024213,-0.030366,-0.144286
24.294248,0.023148,-0.027134,-0.149614
24.294248,0.023148,-0.027134,-0.149614
24.304258,0.021015,-0.028200,-0.148557
24.314298,0.023152,-0.023915,-0.152804
24.324339,0.027403,-0.028200,-0.152812
24.334349,0.017832,-0.021772,-0.150672
24.354399,0.026362,-0.018581,-0.153838
24.354399,0.026362,-0.018581,-0.153838
24.364439,0.018886,-0.021740,-0.158146
24.374449,0.029525,-0.029255,-0.157084
24.394499,0.027408,-0.022830,-0.159196
24.394499,0.027408,-0.022830,-0.159196
24.404539,0.033793,-0.027128,-0.158131
24.434629,0.036971,-0.031385,-0.163483
24.434629,0.036971,-0.031385,-0.163483
24.444639,0.029536,-0.019593,-0.167721
24.454679,0.034843,-0.028159,-0.166678
24.464689,0.031638,-0.031357,-0.165634
24.474729,0.034842,-0.026003,-0.170941
24.504820,0.041218,-0.031348,-0.174153
24.504820,0.041218,-0.031348,-0.174153
24.514830,0.039095,-0.030293,-0.169881
24.524870,0.037991,-0.043095,-0.172081
24.534880,0.047598,-0.035630,-0.176292
24.544920,0.040161,-0.029219,-0.172010
24.564970,0.046523,-0.037753,-0.178442
24.564970,0.046523,-0.037753,-0.178442
24.575010,0.034836,-0.025983,-0.175214
24.595060,0.030520,-0.037739,-0.180581
24.595060,0.045454,-0.037739,-0.180581
24.605070,0.034827,-0.028108,-0.177360
24.615110,0.027328,-0.039811,-0.181709
24.635160,0.029498,-0.027013,-0.179506
24.635160,0.029498,-0.027013,-0.179506
24.645201,0.023058,-0.040855,-0.183862
24.655210,0.042248,-0.037703,-0.185931
24.665285,0.035872,-0.035587,-0.177393
24.675294,0.022001,-0.035492,-0.188113
24.685335,0.040130,-0.031274,-0.189111
24.705385,0.029455,-0.035496,-0.192365
24.705385,0.029455,-0.035496,-0.192365
24.715395,0.040140,-0.026997,-0.190159
24.725435,0.026257,-0.038714,-0.187048
24.735475,0.041165,-0.038722,-0.195552
24.745485,0.043334,-0.029153,-0.188024
24.755525,0.025194,-0.035487,-0.191308
24.785585,0.024118,-0.035453,-0.197721
24.795625,0.046483,-0.038704,-0.203015
24.805666,0.034796,-0.030163,-0.194461
24.815675,0.024098,-0.038621,-0.205213
24.825716,0.041160,-0.035473,-0.205151
24.835725,0.028357,-0.041854,-0.202012
24.845766,0.027295,-0.035398,-0.211598
24.855775,0.037963,-0.033312,-0.208354
24.865816,0.025127,-0.049279,-0.210602
24.875825,0.031537,-0.040731,-0.215885
24.895906,0.021911,-0.052442,-0.217035
24.905916,0.042174,-0.045007,-0.222285
24.905916,0.042174,-0.045007,-0.222285
24.915956,0.035837,-0.026857,-0.216875
24.925966,0.019772,-0.050259,-0.225576
24.936006,0.047497,-0.043931,-0.227606
24.946016,0.031529,-0.039628,-0.223357
24.956056,0.031487,-0.051344,-0.229822
24.966096,0.052831,-0.042885,-0.226518
24.986146,0.038943,-0.051353,-0.233006
24.986146,0.038943,-0.051353,-0.233006
24.996156,0.044300,-0.041764,-0.231877
25.006197,0.031485,-0.050261,-0.233021
25.016206,0.037890,-0.044927,-0.236183
25.026247,0.043207,-0.049216,-0.236189
25.036256,0.033612,-0.051331,-0.234089
25.056337,0.035762,-0.041701,-0.239378
25.056337,0.035762,-0.041701,-0.239378
25.066347,0.024018,-0.051295,-0.235183
25.076387,0.034677,-0.047022,-0.242611
25.086397,0.038948,-0.045983,-0.239390
25.096437,0.022953,-0.046984,-0.242643
25.106447,0.041052,-0.051290,-0.247955
25.126527,0.029344,-0.044839,-0.249025
25.126527,0.029344,-0.044839,-0.249025
25.136537,0.057021,-0.056671,-0.250072
25.146577,0.040011,-0.042748,-0.246849
25.156587,0.039980,-0.051266,-0.252230
25.166627,0.060222,-0.053462,-0.253253
25.176637,0.049587,-0.048113,-0.247916
25.196687,0.067678,-0.053471,-0.256437
25.196687,0.067678,-0.053471,-0.256437
25.206728,0.049588,-0.044884,-0.253242
25.216768,0.052749,-0.052320,-0.263950
25.226778,0.062347,-0.052371,-0.259651
25.236818,0.043177,-0.045891,-0.261810
25.246828,0.048509,-0.042684,-0.266053
25.266878,0.042104,-0.045862,-0.267154
25.266878,0.042104,-0.045862,-0.267154
25.276918,0.048491,-0.046936,-0.270346
25.286958,0.050645,-0.040550,-0.267105
25.296968,0.047423,-0.048005,-0.269286
25.307008,0.049581,-0.036245,-0.273497
25.317018,0.058096,-0.041622,-0.271363
25.337068,0.054898,-0.039456,-0.275634
25.347108,0.062361,-0.041641,-0.270283
25.357118,0.052771,-0.039464,-0.272435
25.367158,0.061292,-0.038399,-0.277748
25.377199,0.061307,-0.037366,-0.270265
25.387208,0.053816,-0.045865,-0.274599
25.407259,0.055982,-0.034130,-0.273469
25.417299,0.053823,-0.042656,-0.275652
25.427309,0.069801,-0.044834,-0.277755
25.437349,0.055977,-0.035193,-0.274543
25.447389,0.065521,-0.053384,-0.273534
25.457399,0.067686,-0.039492,-0.276667
25.477449,0.064453,-0.052297,-0.276737
25.487489,0.069819,-0.039504,-0.275593
25.497499,0.060231,-0.038410,-0.274546
25.507539,0.064461,-0.051244,-0.273527
25.517549,0.063421,-0.039473,-0.277747
25.527589,0.071932,-0.046992,-0.274554
25.547639,0.066618,-0.039484,-0.277738
25.557680,0.065548,-0.044850,-0.271357
25.567689,0.067661,-0.050187,-0.273513
25.577730,0.068761,-0.037370,-0.274518
25.587739,0.068724,-0.052336,-0.271384
25.597780,0.061265,-0.050161,-0.274599
25.617830,0.064461,-0.051244,-0.273527
25.627870,0.060184,-0.054419,-0.276758
25.637880,0.061273,-0.044801,-0.278846
25.647920,0.061250,-0.054422,-0.276755
25.657930,0.055944,-0.044784,-0.278861
25.667990,0.057005,-0.045850,-0.279931
25.688040,0.055929,-0.049045,-0.281018
25.688040,0.055929,-0.049045,-0.281018
25.698081,0.053811,-0.043694,-0.282066
25.708090,0.060195,-0.046913,-0.283132
25.718131,0.058059,-0.049047,-0.282080
25.728140,0.052753,-0.039408,-0.284185
25.738181,0.066588,-0.046929,-0.284183
25.758231,0.058078,-0.039411,-0.287375
25.768271,0.062332,-0.043706,-0.285247
25.778281,0.057000,-0.044757,-0.285267
25.788321,0.053829,-0.032979,-0.289493
25.798331,0.055933,-0.044748,-0.286338
25.808371,0.055926,-0.046879,-0.287417
25.828421,0.051671,-0.042583,-0.289544
25.838431,0.051667,-0.045802,-0.286355
25.848471,0.045304,-0.032956,-0.288448
25.858511,0.055949,-0.038336,-0.287376
25.868521,0.051678,-0.040453,-0.288466
25.878561,0.054880,-0.039400,-0.287384
25.918662,0.061293,-0.034091,-0.285205
25.918662,0.061293,-0.034091,-0.285205
25.928702,0.060224,-0.036234,-0.283082
25.938712,0.065525,-0.045858,-0.284181
25.948752,0.055977,-0.029807,-0.284131
25.958762,0.053829,-0.035135,-0.285230
25.968802,0.057023,-0.037286,-0.284164
25.978812,0.061302,-0.030888,-0.285190
25.988852,0.058068,-0.045843,-0.282065
25.998862,0.057018,-0.037271,-0.287368
26.008902,0.053838,-0.031931,-0.285215
26.018942,0.062309,-0.052250,-0.285288
26.028952,0.062344,-0.039434,-0.285227
26.038992,0.060224,-0.034078,-0.287344
26.049002,0.066564,-0.056545,-0.283160
26.059042,0.065527,-0.044785,-0.285244
26.069052,0.067670,-0.040520,-0.285218
26.079092,0.064448,-0.050126,-0.284204
26.089133,0.068715,-0.046921,-0.287381
26.099143,0.066595,-0.042642,-0.287367
26.109183,0.062294,-0.056511,-0.287445
26.119193,0.071895,-0.052261,-0.289534
26.129233,0.065531,-0.041566,-0.288433
26.139243,0.063357,-0.057583,-0.287447
26.149283,0.078281,-0.055485,-0.289532
26.159293,0.072990,-0.042663,-0.287349
26.169333,0.060163,-0.057582,-0.285319
26.179373,0.078284,-0.054417,-0.289527
26.189383,0.068726,-0.045878,-0.282035
26.199423,0.067626,-0.055461,-0.287425
26.209433,0.076150,-0.057634,-0.285275
26.219473,0.067648,-0.047990,-0.286321
26.229483,0.064455,-0.045839,-0.287388
26.239523,0.051633,-0.058623,-0.285348
26.249564,0.064443,-0.047954,-0.291671
26.259573,0.065518,-0.049066,-0.283128
26.269614,0.059089,-0.058632,-0.288532
26.279623,0.054855,-0.046860,-0.290624
26.289664,0.056999,-0.044752,-0.286335
26.299674,0.053778,-0.052207,-0.288516
26.309714,0.062333,-0.041555,-0.288442
26.319724,0.064436,-0.053319,-0.286355
26.329764,0.068690,-0.055459,-0.288490
26.339804,0.071938,-0.038393,-0.286264
26.349814,0.074034,-0.052293,-0.284188
26.359854,0.075085,-0.056558,-0.286341
26.369864,0.079384,-0.044835,-0.284137
26.379904,0.084698,-0.050192,-0.284148
26.389914,0.076158,-0.054430,-0.285260
26.399954,0.090012,-0.054470,-0.286290
26.409995,0.084703,-0.049129,-0.283075
26.420004,0.071891,-0.055480,-0.286345
26.430045,0.092155,-0.049128,-0.288395
26.440054,0.082565,-0.051258,-0.283091
26.450095,0.081483,-0.054433,-0.288450
26.460104,0.096417,-0.049136,-0.289452
26.470145,0.080434,-0.051251,-0.283097
26.480154,0.076149,-0.055478,-0.289538
26.490195,0.091079,-0.050167,-0.293744
26.500235,0.077243,-0.045875,-0.288421
26.510245,0.072964,-0.047967,-0.294852
26.520285,0.084682,-0.049063,-0.296961
26.530295,0.075104,-0.047999,-0.289505
26.540335,0.076157,-0.046884,-0.300179
26.550345,0.085776,-0.041616,-0.291582
26.560385,0.075090,-0.050110,-0.294856
26.570425,0.095334,-0.051233,-0.296942
26.580435,0.103899,-0.039534,-0.292590
26.610526,0.110270,-0.045942,-0.296876
26.610526,0.110270,-0.045942,-0.296876
26.620535,0.094304,-0.042727,-0.288359
26.630576,0.102814,-0.044855,-0.295823
26.640585,0.102814,-0.047011,-0.291560
26.650626,0.087915,-0.038414,-0.292629
26.660666,0.090040,-0.038401,-0.296896
26.670701,0.082574,-0.041591,-0.294795
26.680741,0.075116,-0.038342,-0.299074
26.690751,0.074074,-0.030873,-0.296905
26.700791,0.065529,-0.036175,-0.299090
26.710801,0.068737,-0.030831,-0.302260
26.720841,0.065535,-0.032961,-0.301211
26.740891,0.058057,-0.038267,-0.303393
26.750931,0.054874,-0.031839,-0.305508
26.760941,0.056980,-0.039306,-0.308742
26.770981,0.061255,-0.036126,-0.306579
26.780991,0.049506,-0.042470,-0.311982
26.791032,0.058041,-0.039294,-0.311944
26.801041,0.055885,-0.048904,-0.310927
26.811082,0.061208,-0.047828,-0.316248
26.821122,0.053782,-0.036061,-0.315145
26.831132,0.054779,-0.060622,-0.316327
26.841172,0.066534,-0.047835,-0.318370
26.851182,0.058039,-0.038211,-0.315143
26.861222,0.060101,-0.061697,-0.318453
26.881272,0.046290,-0.046711,-0.316284
26.891312,0.062231,-0.059543,-0.323778
26.901322,0.066552,-0.042505,-0.316208
26.911362,0.038818,-0.049881,-0.318456
26.921372,0.059047,-0.055266,-0.322699
26.931412,0.050562,-0.043521,-0.316257
26.941422,0.040970,-0.042412,-0.318415
26.951462,0.052677,-0.047785,-0.319476
26.961472,0.048428,-0.044582,-0.316268
26.971513,0.040982,-0.038140,-0.318395
26.981553,0.056944,-0.048887,-0.315197
26.991563,0.053771,-0.039260,-0.316228
27.001603,0.043118,-0.037085,-0.317316
27.031663,0.056975,-0.037135,-0.316209
27.041703,0.060149,-0.046766,-0.314110
27.051743,0.051645,-0.034961,-0.320487
27.061753,0.048434,-0.042447,-0.316258
27.071793,0.059082,-0.042451,-0.322638
27.081803,0.056979,-0.033916,-0.319399
27.091843,0.050562,-0.041365,-0.320520
27.101853,0.064411,-0.042468,-0.322623
27.111893,0.059112,-0.035006,-0.316193
27.121903,0.061194,-0.048860,-0.323731
27.131943,0.065506,-0.030714,-0.324701
27.141984,0.064414,-0.041400,-0.322618
27.162034,0.077218,-0.035024,-0.324689
27.172044,0.071898,-0.033959,-0.320426
27.182084,0.084620,-0.056407,-0.324770
27.192094,0.096406,-0.037253,-0.318237
27.202134,0.083622,-0.035075,-0.318262
27.212174,0.096385,-0.043650,-0.320404
27.232224,0.092108,-0.046825,-0.323636
27.242234,0.092135,-0.039370,-0.319327
27.252274,0.084653,-0.042509,-0.327909
27.262284,0.083585,-0.045729,-0.323654
27.272324,0.067584,-0.052095,-0.321592
27.282334,0.071854,-0.043515,-0.332222
27.302415,0.068641,-0.052073,-0.326930
27.312424,0.072940,-0.041428,-0.322595
27.322465,0.060112,-0.057420,-0.319501
27.332474,0.073969,-0.052085,-0.327983
27.342515,0.080384,-0.051094,-0.316211
27.352524,0.070785,-0.051042,-0.320510
27.362565,0.088885,-0.059660,-0.317296
27.372605,0.079315,-0.052158,-0.316219
27.382615,0.087824,-0.057515,-0.318357
27.392655,0.092113,-0.053303,-0.308711
27.402665,0.091047,-0.051144,-0.312977
27.412705,0.092137,-0.044760,-0.308671
27.422715,0.091065,-0.049048,-0.304421
27.442765,0.098551,-0.041612,-0.301161
27.452805,0.078305,-0.039405,-0.302274
27.462846,0.097454,-0.047971,-0.310808
27.472855,0.085791,-0.035198,-0.293688
27.482896,0.071914,-0.035088,-0.307613
27.482896,0.071914,-0.035088,-0.307613
27.502946,0.071945,-0.029799,-0.296905
27.512955,0.076176,-0.036175,-0.306538
27.522996,0.071948,-0.028731,-0.296900
27.522996,0.071948,-0.028731,-0.296900
27.543046,0.075136,-0.028711,-0.303301
27.553086,0.061281,-0.030822,-0.299076
27.563096,0.062328,-0.032921,-0.307629
27.563096,0.062328,-0.032921,-0.307629
27.573136,0.056994,-0.038273,-0.301260
27.603196,0.052693,-0.047835,-0.308794
27.613236,0.062272,-0.052133,-0.309856
27.623276,0.050582,-0.041431,-0.306633
27.633286,0.043081,-0.052051,-0.314182
27.643326,0.043094,-0.051013,-0.307768
27.653336,0.035661,-0.039226,-0.310937
27.653336,0.035661,-0.039226,-0.310937
27.673419,0.046269,-0.059572,-0.306731
27.683460,0.034588,-0.042432,-0.309887
27.693500,0.040982,-0.045682,-0.304544
27.703510,0.046301,-0.049976,-0.303481
27.703510,0.046301,-0.049976,-0.303481
27.713550,0.045256,-0.040346,-0.306643
27.743610,0.050640,-0.027609,-0.293749
27.743610,0.050640,-0.027609,-0.293749
27.753650,0.044187,-0.050025,-0.291737
27.763660,0.057040,-0.025494,-0.293722
27.773700,0.049562,-0.039418,-0.279921
27.783740,0.056996,-0.044742,-0.288472
27.793750,0.051741,-0.024494,-0.275572
27.803790,0.046362,-0.040476,-0.279935
27.813800,0.060204,-0.044787,-0.280986
27.823840,0.060251,-0.034164,-0.269185
27.833850,0.064490,-0.040565,-0.273476
27.843890,0.059165,-0.040558,-0.271355
27.853931,0.063437,-0.038446,-0.269196
27.863941,0.064490,-0.043794,-0.268150
27.873981,0.070886,-0.042742,-0.269196
27.883991,0.063447,-0.036325,-0.265982
27.894031,0.058077,-0.050181,-0.268198
27.904041,0.075122,-0.052367,-0.269230
27.914081,0.059174,-0.039510,-0.267077
27.924091,0.054906,-0.039481,-0.270293
27.944171,0.063397,-0.053402,-0.268199
27.944171,0.063397,-0.053402,-0.268199
27.954181,0.050654,-0.035196,-0.270284
27.964221,0.061281,-0.044826,-0.273505
27.974231,0.053832,-0.044838,-0.266048
27.984271,0.046374,-0.041589,-0.270327
27.994281,0.051729,-0.033073,-0.268135
28.014362,0.057035,-0.042712,-0.266030
28.014362,0.057035,-0.042712,-0.266030
28.024371,0.059183,-0.037384,-0.264930
28.034412,0.055980,-0.041666,-0.260686
28.044421,0.063451,-0.038491,-0.259583
28.054462,0.056023,-0.028876,-0.255285
28.064472,0.055983,-0.044905,-0.253224
28.104602,0.065615,-0.034292,-0.245670
28.114612,0.052830,-0.037495,-0.237175
28.124652,0.053896,-0.032113,-0.246760
28.134662,0.045416,-0.021462,-0.234983
28.154712,0.051778,-0.029996,-0.241415
28.154712,0.051778,-0.029996,-0.241415
28.164752,0.028377,-0.018218,-0.231810
28.174793,0.031535,-0.025643,-0.244655
28.184802,0.029460,-0.011814,-0.231777
28.194843,0.029423,-0.022468,-0.237168
28.204852,0.040087,-0.021445,-0.234998
28.224902,0.047532,-0.027882,-0.233939
28.224902,0.047532,-0.027882,-0.233939
28.234943,0.041185,-0.014008,-0.227482
28.244952,0.040102,-0.018261,-0.230710
28.254993,0.047564,-0.020442,-0.226426
28.265033,0.053950,-0.023666,-0.226424
28.275043,0.052897,-0.019396,-0.225339
28.295093,0.055019,-0.024758,-0.222153
28.305133,0.048632,-0.023684,-0.218961
28.315143,0.048655,-0.014063,-0.221052
28.325183,0.049691,-0.027975,-0.215774
28.335223,0.044389,-0.017273,-0.216806
28.345233,0.050768,-0.023706,-0.215751
28.365283,0.042256,-0.018339,-0.215749
28.365283,0.042256,-0.018339,-0.215749
28.375324,0.039064,-0.020500,-0.208291
28.385333,0.037980,-0.024748,-0.212587
28.395374,0.041224,-0.010901,-0.207171
28.405383,0.042246,-0.028001,-0.205113
28.415424,0.046522,-0.022670,-0.206144
28.445514,0.051868,-0.020587,-0.198642
28.445514,0.051868,-0.020587,-0.198642
28.455524,0.038014,-0.020547,-0.197612
28.465564,0.050791,-0.024855,-0.198665
28.475574,0.049737,-0.023814,-0.192254
28.485614,0.040142,-0.023773,-0.194416
28.505664,0.040166,-0.016308,-0.192245
28.505664,0.040166,-0.016308,-0.192245
28.515704,0.036968,-0.016297,-0.192253
28.525714,0.045492,-0.019549,-0.187972
28.535754,0.042308,-0.014194,-0.189024
28.545764,0.036985,-0.014197,-0.184766
28.555805,0.041257,-0.011007,-0.184739
28.585895,0.032765,-0.001393,-0.179376
28.585895,0.032765,-0.001393,-0.179376
28.595905,0.036977,-0.019557,-0.180518
28.605945,0.052973,-0.018561,-0.176197
28.615955,0.033824,-0.005683,-0.176189
28.625995,0.038052,-0.018512,-0.176238
28.646045,0.027434,-0.005678,-0.173002
28.646045,0.027434,-0.005678,-0.173002
28.656085,0.039151,-0.010003,-0.169785
28.666095,0.043379,-0.022832,-0.169834
28.676150,0.042351,-0.008945,-0.169771
28.686160,0.035965,-0.008950,-0.164448
28.696200,0.041262,-0.018563,-0.167683
28.726260,0.038094,-0.011103,-0.162316
28.726260,0.038094,-0.011103,-0.162316
28.736300,0.034901,-0.012186,-0.156989
28.746341,0.040220,-0.014324,-0.160189
28.756351,0.035985,-0.005781,-0.156955
28.766391,0.037048,-0.007931,-0.154826
28.786441,0.041325,-0.006912,-0.147332
28.786441,0.041325,-0.006912,-0.147332
28.796451,0.041317,-0.007965,-0.150542
28.806491,0.042388,-0.007984,-0.147334
28.816531,0.033861,-0.006878,-0.149489
28.826541,0.034943,-0.000469,-0.150524
28.836581,0.040257,-0.009055,-0.145209
28.866641,0.026407,-0.006874,-0.145237
28.876681,0.022157,-0.000437,-0.148422
28.886691,0.018958,-0.002578,-0.145237
28.896731,0.028545,-0.004745,-0.145221
28.906772,0.026400,-0.010083,-0.144184
28.926822,0.021073,-0.010070,-0.143130
28.936832,0.025311,-0.019701,-0.142096
28.946872,0.025342,-0.009027,-0.140977
28.956882,0.026396,-0.012224,-0.143125
28.966922,0.029591,-0.017614,-0.134596
28.976962,0.025330,-0.014376,-0.138866
28.997012,0.017869,-0.017581,-0.133560
29.007022,0.027452,-0.020816,-0.133549
29.017062,0.020015,-0.016556,-0.126072
29.027072,0.012554,-0.014375,-0.130355
29.037112,0.025322,-0.026199,-0.122898
29.047122,0.024275,-0.017637,-0.126066
29.067203,0.013614,-0.019749,-0.123969
29.077212,0.026435,-0.009116,-0.122815
29.087253,0.006179,-0.012264,-0.120749
29.097262,0.015772,-0.006910,-0.130311
29.107303,0.020048,-0.010199,-0.115360
29.117312,0.013647,-0.010158,-0.119650
29.137393,0.016855,-0.008047,-0.116427
29.147403,0.017917,-0.010192,-0.115366
29.157443,0.022187,-0.005919,-0.118538
29.167453,0.023268,-0.003817,-0.112116
29.177493,0.024289,-0.016605,-0.118583
29.187503,0.025392,-0.005954,-0.113189
29.227634,0.018972,-0.014472,-0.114315
29.237643,0.023231,-0.015549,-0.115376
29.247684,0.017906,-0.013390,-0.116449
29.257693,0.014698,-0.019808,-0.112215
29.267734,0.016823,-0.019794,-0.116482
29.277743,0.015759,-0.021952,-0.111154
29.287784,0.016810,-0.026217,-0.113308
29.297824,0.014695,-0.021954,-0.110089
29.307834,0.013606,-0.029416,-0.112264
29.317874,0.017868,-0.031581,-0.109058
29.327884,0.002965,-0.024052,-0.110132
29.357974,0.011500,-0.024105,-0.104767
29.357974,0.011500,-0.024105,-0.104767
29.367984,0.013627,-0.027330,-0.101572
29.378024,0.010425,-0.028383,-0.102654
29.388064,0.010452,-0.020928,-0.098346
29.398074,0.008288,-0.031590,-0.100539
29.428165,0.016831,-0.028439,-0.095159
29.428165,0.016831,-0.028439,-0.095159
29.438174,0.018972,-0.026320,-0.093007
29.448215,0.021116,-0.023134,-0.090849
29.458255,0.016861,-0.019916,-0.090846
29.468265,0.027495,-0.030645,-0.087662
29.488315,0.014729,-0.023138,-0.085526
29.488315,0.014729,-0.023138,-0.085526
29.498355,0.021117,-0.023139,-0.089781
29.508365,0.016877,-0.018888,-0.082295
29.518405,0.012605,-0.016693,-0.091910
29.528415,0.020057,-0.024228,-0.084448
29.538455,0.012604,-0.018844,-0.088716
29.568545,0.018998,-0.021016,-0.085504
29.568545,0.018998,-0.021016,-0.085504
29.578555,0.010482,-0.016712,-0.086575
29.588595,0.018988,-0.026371,-0.082325
29.598605,0.017943,-0.014585,-0.089749
29.608645,0.014744,-0.019955,-0.081238
29.638736,0.018978,-0.025262,-0.090865
29.638736,0.018978,-0.025262,-0.090865
29.648746,0.009408,-0.022068,-0.082331
29.658786,0.007271,-0.019890,-0.089804
29.668830,0.018974,-0.029559,-0.085544
29.678870,0.005126,-0.025228,-0.088767
29.698920,0.014704,-0.030598,-0.088766
29.708960,0.006199,-0.027407,-0.080229
29.718970,0.006186,-0.028445,-0.086643
29.729010,0.004064,-0.027390,-0.082371
29.739020,0.006178,-0.033805,-0.082395
29.749060,0.012587,-0.028486,-0.082352
29.779151,0.009387,-0.029544,-0.082366
29.779151,0.009387,-0.029544,-0.082366
29.789160,0.006210,-0.026365,-0.074882
29.799201,0.001929,-0.031680,-0.077056
29.809210,0.007284,-0.021008,-0.079127
29.819251,0.011524,-0.032800,-0.072762
29.829261,0.006213,-0.025297,-0.074877
29.839301,0.010490,-0.019971,-0.074840
29.849311,0.004071,-0.030645,-0.071704
29.859351,0.016855,-0.031744,-0.073810
29.869391,-0.001215,-0.015681,-0.070580
29.879401,0.000875,-0.028483,-0.074907
29.889441,0.003015,-0.024208,-0.077018
29.909491,0.003000,-0.029548,-0.077043
29.919501,-0.003378,-0.023115,-0.078098
29.929541,-0.002309,-0.019899,-0.081285
29.939582,0.000882,-0.024196,-0.078092
29.949591,-0.001238,-0.018840,-0.080209
29.959632,0.000879,-0.024186,-0.080228
29.969641,0.003010,-0.024193,-0.080222
29.979682,0.000909,-0.012434,-0.081241
29.989691,0.008357,-0.018881,-0.078046
29.999732,-0.000174,-0.019916,-0.079142
30.009741,0.007287,-0.021018,-0.076991
30.019782,0.008375,-0.013551,-0.075884
30.029822,0.015805,-0.025328,-0.074851
30.059882,0.007309,-0.013548,-0.075887
30.059882,0.007309,-0.013548,-0.075887
30.069922,0.010501,-0.017850,-0.071626
30.079932,0.008375,-0.014630,-0.073753
30.089972,0.001972,-0.018891,-0.071654
30.100012,0.004106,-0.017830,-0.071643
30.110022,0.000922,-0.013553,-0.070564
30.120063,0.003037,-0.022123,-0.066325
30.130072,0.005169,-0.018901,-0.071645
30.140113,0.006236,-0.022139,-0.065249
30.150122,-0.000159,-0.023196,-0.063135
30.160163,0.014737,-0.028549,-0.070596
30.170172,0.015814,-0.029665,-0.060985
30.200263,0.007294,-0.024273,-0.066324
30.200263,0.007294,-0.024273,-0.066324
30.210303,0.011540,-0.031772,-0.064211
30.220313,0.007281,-0.027461,-0.069544
30.230353,0.005154,-0.028548,-0.064214
30.240363,-0.005494,-0.022080,-0.069554
30.270453,-0.009752,-0.019931,-0.069555
30.280493,0.010482,-0.026409,-0.068462
30.290503,-0.003345,-0.016758,-0.067386
30.300543,0.003037,-0.021045,-0.068457
30.310553,0.007309,-0.018933,-0.066299
30.320594,0.006233,-0.023207,-0.065254
30.330603,0.014762,-0.022166,-0.065225
30.340644,0.013696,-0.022163,-0.065228
30.350684,0.011567,-0.023239,-0.062034
30.360694,0.013704,-0.020032,-0.064150
30.370734,0.008376,-0.020020,-0.063096
30.380744,0.005184,-0.018947,-0.062032
30.390784,0.016888,-0.025387,-0.063098
30.400794,0.013707,-0.021120,-0.059882
30.410834,0.001965,-0.025334,-0.064207
30.420874,0.003045,-0.022148,-0.060985
30.430884,0.005178,-0.021082,-0.062042
30.440924,-0.000153,-0.022138,-0.060993
30.450934,-0.001214,-0.019994,-0.062054
30.470984,-0.002280,-0.021068,-0.059926
30.481024,0.000895,-0.027471,-0.063152
30.491034,-0.000138,-0.017876,-0.058837
30.501074,0.000913,-0.022142,-0.060990
30.511115,0.011571,-0.022176,-0.060961
30.521125,0.006260,-0.017907,-0.056683
30.531165,0.013705,-0.023266,-0.057756
30.541175,0.004127,-0.016817,-0.059888
30.551215,0.004128,-0.016822,-0.058820
30.561225,0.012639,-0.023263,-0.057759
30.571265,0.007329,-0.015765,-0.058806
30.581305,-0.001206,-0.020019,-0.056713
30.591315,-0.001221,-0.023203,-0.061001
30.611365,-0.001203,-0.020029,-0.054577
30.621405,-0.003347,-0.019982,-0.063128
30.631415,0.004099,-0.028580,-0.056739
30.641455,-0.007591,-0.014643,-0.059910
30.651465,0.003032,-0.028571,-0.057810
30.661505,-0.010804,-0.022124,-0.056750
30.681560,-0.001227,-0.026416,-0.058880
30.691601,-0.005478,-0.023209,-0.056740
30.701610,-0.003366,-0.029618,-0.057833
30.711651,-0.006535,-0.018924,-0.058859
30.721661,-0.012936,-0.022117,-0.056756
30.731701,0.001950,-0.034980,-0.056775
30.751751,-0.003368,-0.031764,-0.055707
30.761791,0.004113,-0.026469,-0.051388
30.771801,0.001982,-0.026462,-0.051394
30.781841,0.008357,-0.032886,-0.052475
30.791851,0.006263,-0.022225,-0.047089
30.801891,0.000904,-0.031809,-0.049286
30.811901,0.001990,-0.026488,-0.046053
30.821941,0.003071,-0.020078,-0.047088
30.831982,-0.003362,-0.032863,-0.049303
30.841991,-0.005455,-0.020051,-0.047111
30.852032,0.001985,-0.027550,-0.047126
30.862041,-0.017190,-0.027518,-0.040770
30.872082,-0.003349,-0.027518,-0.050345
30.892132,-0.018268,-0.028553,-0.047187
30.902172,-0.007595,-0.023248,-0.047132
30.912182,-0.012911,-0.018964,-0.046059
30.922222,-0.011853,-0.021098,-0.047134
30.932232,-0.009739,-0.027512,-0.047158
30.942272,-0.005447,-0.017920,-0.046033
30.972332,-0.003332,-0.023261,-0.047121
30.982372,0.015852,-0.027631,-0.039611
30.992412,-0.001170,-0.015823,-0.040670
31.002422,0.011578,-0.029738,-0.042837
31.012463,0.008425,-0.018021,-0.034245
31.022472,-0.000130,-0.024365,-0.041776
31.032513,-0.001167,-0.017989,-0.034271
31.042522,-0.008647,-0.022212,-0.039653
31.052563,-0.008632,-0.019028,-0.035365
31.062603,0.000959,-0.020132,-0.034275
31.072613,-0.011828,-0.019023,-0.034306
31.082653,-0.015027,-0.019007,-0.035382
31.102703,-0.012883,-0.014742,-0.035356
31.112713,-0.016102,-0.025437,-0.030075
31.122753,-0.013967,-0.021147,-0.035390
31.132763,-0.010746,-0.016921,-0.027883
31.142803,0.001996,-0.032971,-0.030060
31.152843,-0.004385,-0.028684,-0.028990
31.162853,-0.007565,-0.022266,-0.028968
31.172893,0.008396,-0.035163,-0.022576
31.182903,0.006270,-0.030864,-0.026834
31.192943,0.008423,-0.025552,-0.022530
31.202953,0.007323,-0.038368,-0.021526
31.202953,0.007323,-0.038368,-0.021526
31.223034,0.005212,-0.031964,-0.019365
31.243084,0.008405,-0.031959,-0.022560
31.253094,-0.001169,-0.026599,-0.020425
31.253094,-0.001169,-0.026599,-0.020425
31.273144,0.005235,-0.021265,-0.023587
31.283184,-0.006487,-0.021232,-0.022551
31.293194,-0.013968,-0.028683,-0.022607
31.303234,-0.006492,-0.020138,-0.027887
31.323284,-0.007578,-0.029766,-0.023662
31.333324,-0.010725,-0.011601,-0.023585
31.333324,-0.010725,-0.011601,-0.023585
31.353374,-0.008622,-0.021214,-0.024693
31.353374,-0.008622,-0.021214,-0.024693
31.363384,0.004159,-0.023382,-0.026804
31.403515,-0.004369,-0.025505,-0.023633
31.403515,-0.004369,-0.025505,-0.023633
31.413525,-0.000094,-0.021247,-0.023601
31.423565,-0.003310,-0.028717,-0.022577
31.443615,-0.005425,-0.023376,-0.021490
31.453625,-0.021403,-0.021198,-0.019387
31.463665,-0.019263,-0.016923,-0.021498
31.463665,-0.019263,-0.016923,-0.021498
31.473705,-0.004373,-0.028724,-0.020444
31.483715,-0.015001,-0.019088,-0.018291
31.493755,-0.012872,-0.020163,-0.018291
31.513805,-0.017143,-0.023358,-0.017249
31.523815,-0.012888,-0.027654,-0.015121
31.533855,-0.002217,-0.022344,-0.016135
31.543896,-0.014999,-0.021249,-0.012961
31.553905,-0.004368,-0.029817,-0.015108
31.563946,-0.008594,-0.016993,-0.013991
31.573955,-0.011800,-0.020187,-0.014015
31.583996,0.006299,-0.027726,-0.012932
31.614056,-0.002223,-0.028787,-0.008688
31.614056,-0.002223,-0.028787,-0.008688
31.624096,-0.001141,-0.020226,-0.012917
31.634136,-0.002175,-0.010627,-0.009670
31.644146,-0.001153,-0.027727,-0.007612
31.654186,-0.009657,-0.015922,-0.013989
31.674281,-0.009670,-0.021267,-0.012946
31.684291,-0.018163,-0.006263,-0.018239
31.694331,-0.018170,-0.011628,-0.012924
31.704372,-0.021375,-0.014826,-0.011880
31.714381,-0.005401,-0.016989,-0.017187
31.724422,-0.005364,-0.005257,-0.013926
31.744472,-0.006440,-0.009530,-0.012881
31.744472,-0.006440,-0.009530,-0.012881
31.754481,-0.008588,-0.013779,-0.016112
31.764522,-0.000058,-0.012744,-0.015015
31.774531,-0.002194,-0.013800,-0.016095
31.784572,-0.006461,-0.015927,-0.015048
31.794612,-0.004325,-0.015949,-0.011838
31.814662,-0.005381,-0.013820,-0.009694
31.824672,-0.005395,-0.018087,-0.010783
31.834712,0.001004,-0.014889,-0.013954
31.844722,-0.008588,-0.017014,-0.009718
31.854762,-0.018145,-0.003089,-0.011815
31.864802,-0.002201,-0.018087,-0.012910
31.894862,-0.007504,-0.011688,-0.007554
31.894862,-0.007504,-0.011688,-0.007554
31.904903,-0.021387,-0.018020,-0.014031
31.914912,-0.014946,-0.003105,-0.010738
31.924953,-0.008592,-0.020233,-0.006529
31.934962,0.005257,-0.020257,-0.010763
31.965053,0.005272,-0.014918,-0.010738
31.965053,0.005272,-0.014918,-0.010738
31.975093,-0.001088,-0.005311,-0.005369
31.985103,0.008469,-0.014928,-0.010729
31.995143,0.007432,-0.007474,-0.005356
32.005153,0.004233,-0.007459,-0.006433
32.015193,0.009540,-0.014947,-0.007522
32.025233,0.013823,-0.009636,-0.004280
32.035243,0.009547,-0.011738,-0.008575
32.045283,0.003173,-0.010705,0.003163
32.055293,0.010599,-0.018159,-0.006466
32.065333,0.006386,-0.003225,0.000002
32.075343,-0.001103,-0.010651,-0.005394
32.085384,0.006358,-0.012831,-0.001111
32.095393,0.002102,-0.008530,-0.004307
32.105434,-0.010680,-0.008514,0.000998
32.115474,-0.001107,-0.014948,-0.000074
32.125484,0.004211,-0.014929,-0.007536
32.135524,-0.011726,-0.003186,0.004225
32.145534,-0.003276,-0.022360,-0.011865
32.165584,-0.001109,-0.013864,-0.003273
32.175624,-0.003244,-0.017076,-0.000090
32.185664,0.006360,-0.012836,-0.000043
32.195674,-0.000031,-0.009596,-0.003250
32.205714,-0.003225,-0.010674,0.001009
32.215724,0.011671,-0.018183,-0.002190
32.235774,-0.000040,-0.013878,-0.001134
32.235774,-0.000040,-0.013878,-0.001134
32.245814,0.005277,-0.020318,0.002055
32.255824,0.008480,-0.018193,0.002074
32.265864,-0.005317,0.002133,0.004268
32.275905,-0.004304,-0.013859,-0.002214
32.285915,0.002086,-0.016021,-0.001138
32.316005,0.002077,-0.019225,-0.001153
32.316005,0.002077,-0.019225,-0.001153
32.326015,-0.011723,-0.002118,0.004230
32.336055,-0.009606,-0.003157,-0.003246
32.346095,0.004221,-0.018194,0.005267
32.356105,-0.000023,-0.008543,-0.000040
32.376155,0.002114,-0.007493,0.002107
32.376155,0.002114,-0.007493,0.002107
32.386195,0.006353,-0.017123,0.003141
32.396205,0.003194,-0.004307,0.005330
32.406245,0.008502,-0.009644,0.001046
32.416255,0.003183,-0.006428,0.002115
32.426295,-0.006427,-0.012804,0.002058
32.456386,-0.002167,-0.012808,-0.000067
32.456386,-0.002167,-0.012808,-0.000067
32.466395,-0.005339,-0.005338,0.003165
32.476436,-0.005355,-0.009594,-0.000060
32.486446,-0.007509,-0.017058,-0.001170
32.496486,-0.005370,-0.016012,0.002046
32.526576,0.002084,-0.016016,-0.002206
32.526576,0.002084,-0.016016,-0.002206
32.536586,-0.007481,-0.009607,0.004207
32.546626,-0.002181,-0.019226,0.002039
32.556636,0.006338,-0.022462,0.003116
32.566676,-0.014920,0.001121,-0.001104
32.576686,-0.004310,-0.017073,-0.000093
32.586726,-0.012847,-0.021322,0.000932
32.596767,-0.015980,0.004339,-0.003228
32.606776,-0.016026,-0.015982,0.003085
32.616817,-0.021365,-0.013778,-0.007602
32.626826,-0.020244,0.002202,-0.000046
32.636867,-0.024559,-0.015934,-0.001211
32.656917,-0.026657,-0.002029,-0.004356
