time_tick,gyr_X_value,gyr_Y_value,gyr_Z_value
0.010936,-0.028856,-0.031970,0.005110
0.020946,-0.052320,-0.037228,0.003952
0.030986,-0.034190,-0.031937,0.001891
0.041026,-0.017123,-0.025575,-0.000168
0.051036,0.026613,-0.012912,0.002149
0.061077,0.026627,-0.006494,0.000043
0.071086,0.009542,-0.017108,-0.002191
0.081127,-0.012865,-0.024495,-0.005493
0.091136,-0.029929,-0.028712,-0.005560
0.101177,-0.014991,-0.025582,-0.000162
0.111217,-0.012852,-0.023458,0.000922
0.121227,-0.017151,-0.029796,-0.010870
0.131267,-0.026736,-0.024400,-0.016213
0.141277,0.006343,-0.017092,-0.003268
0.151317,0.025546,-0.015059,0.005340
0.161327,-0.004308,-0.018156,0.003107
0.171367,-0.029913,-0.025533,-0.000203
0.181407,-0.029915,-0.027679,0.001923
0.191417,-0.012837,-0.021352,0.007341
0.201457,0.001010,-0.021372,0.002038
0.211467,-0.012858,-0.020209,-0.008677
0.221507,-0.008582,-0.021341,0.002012
0.231517,-0.005401,-0.025608,-0.001204
0.241557,0.011693,-0.012868,0.003176
0.251567,-0.001117,-0.019224,0.000974
0.261608,-0.007509,-0.018136,0.000962
0.271648,-0.021383,-0.024493,-0.000175
0.281658,-0.020313,-0.023434,0.000901
0.291698,-0.002175,-0.017090,0.002050
0.301708,-0.009642,-0.018124,-0.000112
0.311748,-0.009639,-0.017056,-0.000107
0.321758,-0.010709,-0.018115,-0.001184
0.331798,-0.004308,-0.017078,0.000976
0.341838,-0.002174,-0.017095,0.003118
0.351848,-0.012841,-0.019186,0.000942
0.361888,-0.011778,-0.019180,-0.001191
0.371898,-0.008579,-0.019195,-0.000115
0.381938,-0.002189,-0.021357,0.000961
0.391948,-0.001115,-0.019229,0.002042
0.401988,-0.016029,-0.015972,0.000948
0.412029,-0.018179,-0.020217,-0.003351
0.422038,-0.000057,-0.021364,0.000967
0.432079,-0.004311,-0.019224,0.003102
0.442088,-0.014968,-0.018116,0.002009
0.452129,-0.007530,-0.024533,-0.001205
0.462139,-0.012842,-0.019181,-0.000126
0.472179,-0.003247,-0.019222,0.002037
0.482219,-0.003262,-0.024562,0.002011
0.492229,-0.008568,-0.017074,0.003100
0.502269,-0.016047,-0.021302,-0.001213
0.512279,-0.010716,-0.022402,0.002001
0.522319,-0.006450,-0.021348,0.002018
0.532329,-0.007516,-0.021344,0.002015
0.542369,-0.005387,-0.022419,0.002015
0.552410,-0.011779,-0.020253,-0.000128
0.562419,-0.000054,-0.020296,0.000972
0.572460,-0.008583,-0.021336,0.000944
0.582469,-0.013913,-0.020241,-0.001202
0.592510,-0.007515,-0.020271,0.000952
0.602519,-0.013920,-0.022371,-0.002281
0.612560,-0.003251,-0.021363,0.003095
0.622600,-0.007531,-0.024528,-0.002273
0.632610,-0.004308,-0.017078,0.000976
0.642650,-0.007527,-0.022387,-0.003331
0.652660,-0.007524,-0.022397,-0.001195
0.662700,-0.008587,-0.021326,-0.001193
0.672710,-0.011790,-0.023451,-0.001212
0.682750,-0.009649,-0.020254,-0.001191
0.692790,-0.009660,-0.023453,-0.002274
0.702800,-0.000053,-0.019223,-0.000091
0.712840,-0.004328,-0.022403,-0.002254
0.722850,-0.010719,-0.022392,-0.000136
0.732890,-0.012859,-0.023438,-0.003351
0.742900,-0.008595,-0.024530,-0.001208
0.752941,-0.004329,-0.023475,-0.001191
0.762981,-0.008589,-0.022394,-0.001198
0.772991,-0.003262,-0.022406,-0.002251
0.783031,-0.012859,-0.023438,-0.003351
0.793041,-0.004339,-0.024523,-0.005469
0.803088,-0.001129,-0.022418,-0.001177
0.813098,-0.016051,-0.023442,-0.000155
0.823138,-0.005386,-0.020268,-0.001179
0.833178,-0.010724,-0.022377,-0.003340
0.843188,-0.003247,-0.019222,0.002037
0.853228,-0.001129,-0.022418,-0.001177
0.863238,-0.009639,-0.018134,0.002024
0.873278,-0.012859,-0.022360,-0.005482
0.883288,-0.009654,-0.022395,-0.000133
0.893328,-0.003263,-0.023479,-0.001188
0.903369,-0.009654,-0.022395,-0.000133
0.913378,-0.005391,-0.021331,-0.002252
0.923419,-0.013920,-0.021293,-0.004412
0.933428,-0.005386,-0.020268,-0.001179
0.943469,-0.005385,-0.020273,-0.000111
0.953479,-0.010724,-0.023455,-0.001209
0.963519,-0.008591,-0.021311,-0.004397
0.973559,-0.021384,-0.022337,-0.004438
0.983569,-0.000072,-0.024547,-0.003321
0.993609,-0.008585,-0.020253,-0.002256
1.003619,-0.009651,-0.020249,-0.002259
1.013659,-0.003274,-0.025600,-0.004403
1.023669,-0.010729,-0.024518,-0.002282
1.033709,-0.003265,-0.023474,-0.002256
1.043750,-0.006461,-0.023469,-0.001197
1.053759,-0.007521,-0.020251,-0.003321
1.053759,-0.007521,-0.020251,-0.003321
1.073809,-0.006457,-0.021328,-0.002255
1.073809,-0.006457,-0.021328,-0.002255
1.093859,-0.012853,-0.022380,-0.001210
1.103900,-0.007537,-0.026664,-0.002283
1.113940,-0.012859,-0.023438,-0.003351
1.123950,-0.001125,-0.020277,-0.002235
1.123950,-0.001125,-0.020277,-0.002235
1.144000,-0.011783,-0.020242,-0.002265
1.144000,-0.011783,-0.020242,-0.002265
1.164050,-0.011799,-0.025577,-0.003358
1.174090,-0.009649,-0.020254,-0.001191
1.174090,-0.009649,-0.020254,-0.001191
1.194140,-0.009648,-0.020259,-0.000123
1.194140,-0.009648,-0.020259,-0.000123
1.214190,0.002070,-0.022433,-0.000100
1.224230,-0.002201,-0.023472,-0.003322
1.224230,-0.002201,-0.023472,-0.003322
1.244281,-0.012855,-0.021297,-0.004409
1.254290,-0.007533,-0.023445,-0.005473
1.264331,-0.002183,-0.018143,-0.001160
1.264331,-0.002183,-0.018143,-0.001160
1.274371,-0.005401,-0.023452,-0.005467
1.284381,-0.010717,-0.020246,-0.002262
1.304431,-0.008585,-0.019175,-0.004387
1.304431,-0.008585,-0.019175,-0.004387
1.314471,-0.003270,-0.023459,-0.005461
1.324481,-0.016058,-0.023422,-0.004428
1.334521,-0.010727,-0.022367,-0.005477
1.354571,-0.005397,-0.022396,-0.004388
1.364611,-0.005404,-0.024520,-0.005472
1.374621,-0.014992,-0.023426,-0.004425
1.374621,-0.014992,-0.023426,-0.004425
1.384661,-0.012852,-0.020229,-0.004404
1.394671,-0.007532,-0.022372,-0.006536
1.404711,-0.003270,-0.024537,-0.003330
1.414752,-0.008591,-0.022389,-0.002266
1.424761,-0.010727,-0.023445,-0.003345
1.434802,-0.004331,-0.022392,-0.004391
1.444812,-0.008590,-0.021316,-0.003329
1.454852,-0.004337,-0.024528,-0.004401
1.464862,-0.011787,-0.022383,-0.001207
1.474902,-0.008599,-0.023441,-0.005476
1.484942,-0.002189,-0.019201,-0.003302
1.494952,-0.000059,-0.020281,-0.002233
1.515002,-0.012866,-0.026647,-0.002298
1.515002,-0.012866,-0.026647,-0.002298
1.525042,-0.013922,-0.022366,-0.003349
1.535052,-0.007527,-0.022387,-0.003331
1.555133,-0.009660,-0.023453,-0.002274
1.565142,-0.011786,-0.021310,-0.002270
1.575183,-0.004331,-0.022392,-0.004391
1.575183,-0.004331,-0.022392,-0.004391
1.585192,-0.005389,-0.020258,-0.003315
1.595233,-0.006464,-0.023458,-0.003333
1.605242,-0.014993,-0.025577,-0.001231
1.615283,-0.006468,-0.025599,-0.002275
1.625323,-0.008591,-0.021311,-0.004397
1.635333,-0.002192,-0.021347,-0.001175
1.645373,-0.004341,-0.025591,-0.005474
1.655383,-0.011791,-0.023446,-0.002280
1.665423,-0.013928,-0.023424,-0.005490
1.675433,-0.008593,-0.022384,-0.003334
1.685473,-0.005391,-0.020253,-0.004384
1.695513,-0.007521,-0.020251,-0.003321
1.705523,-0.016040,-0.018093,-0.002266
1.715563,-0.014982,-0.019149,-0.005473
1.725573,-0.004321,-0.019194,-0.003307
1.735614,-0.008594,-0.022379,-0.004402
1.755664,-0.027771,-0.019107,-0.005508
1.755664,-0.027771,-0.019107,-0.005508
1.765704,0.001011,-0.018143,-0.003288
1.775714,0.005280,-0.016021,-0.003266
1.785754,0.004206,-0.019221,-0.003284
1.795805,-0.032031,-0.019104,-0.003384
1.805845,-0.011786,-0.018076,-0.008664
1.815855,0.006344,-0.019249,0.000995
1.825895,-0.000059,-0.021359,-0.000101
1.835935,-0.039492,-0.018001,-0.005535
1.855985,0.018094,-0.009675,0.001072
1.865995,-0.010709,-0.018115,-0.001184
1.865995,-0.010709,-0.018115,-0.001184
1.876035,-0.026697,-0.014829,-0.007621
1.886045,-0.000032,-0.010669,-0.002187
1.896085,-0.011769,-0.015976,-0.001176
1.906126,-0.030956,-0.013752,-0.006560
1.916136,-0.000016,-0.005335,-0.001093
1.926176,-0.010700,-0.012760,-0.004363
1.936186,-0.009616,-0.006356,-0.004330
1.956236,-0.026685,-0.010557,-0.007601
1.956236,-0.026685,-0.010557,-0.007601
1.966276,0.001051,-0.005343,-0.000022
1.976316,-0.005318,0.005367,-0.002126
1.986326,-0.018135,-0.003120,-0.005406
1.996366,-0.006413,-0.003153,-0.006442
2.016416,-0.012787,0.001109,-0.000030
2.016416,-0.012787,0.001109,-0.000030
2.026426,-0.035138,0.012934,-0.001104
2.036466,0.010693,0.011702,0.002221
2.056516,-0.018055,0.019246,0.007519
2.056516,-0.018055,0.019246,0.007519
2.066557,-0.041556,0.011953,-0.015013
2.076566,0.022400,-0.001206,0.013943
2.086607,-0.057502,0.025878,-0.012855
2.096616,0.017097,0.009500,0.011843
2.106657,-0.055422,0.007721,-0.014003
2.116667,0.005379,0.009518,0.016083
2.126707,-0.060748,0.008807,-0.014013
2.136747,-0.009548,0.010665,0.009638
2.146757,-0.052209,0.010894,-0.009707
2.156797,-0.018087,0.007499,0.007463
2.166807,-0.039393,0.015079,-0.000038
2.176847,-0.041522,0.015076,0.002093
2.186857,-0.021275,0.015020,0.000012
2.196897,-0.026601,0.016105,0.000003
2.206938,-0.031958,0.006516,-0.001126
2.226988,-0.020233,0.006473,-0.000025
2.226988,-0.020233,0.006473,-0.000025
2.236997,-0.009569,0.008575,0.000014
2.247038,-0.058616,0.002336,-0.002287
2.257047,-0.004243,0.008567,-0.002108
2.267088,0.000005,0.001063,0.001073
2.277128,-0.077850,-0.016834,-0.000295
2.297178,-0.032009,-0.012711,-0.000149
2.297178,-0.032009,-0.012711,-0.000149
2.307188,-0.061889,-0.029732,0.006098
2.317228,0.031991,0.009538,-0.006276
2.327238,-0.004262,0.000009,0.001056
2.337278,-0.048066,-0.040446,0.003949
2.347318,-0.036272,-0.008390,-0.007617
2.367368,-0.023521,-0.032007,0.009397
2.367368,-0.023521,-0.032007,0.009397
2.377378,-0.090708,-0.039199,-0.004709
2.387418,0.047935,-0.019465,0.018200
2.397428,-0.020286,-0.009515,-0.006510
2.407469,-0.050230,-0.052186,0.003887
2.417509,-0.013859,-0.004252,0.005283
2.427519,0.042582,-0.009674,-0.015951
2.437559,-0.072576,-0.046839,0.017737
2.447569,-0.006432,-0.019253,0.010573
2.457609,0.006364,-0.005310,-0.010690
2.467619,-0.044852,-0.042663,0.018902
2.477659,-0.027788,-0.027671,-0.001276
2.487699,0.003190,-0.009682,0.012782
2.507749,-0.036298,-0.026621,0.008319
2.507749,-0.036298,-0.026621,0.008319
2.517759,0.022334,-0.021467,0.007438
2.527799,-0.021326,-0.012827,0.016972
2.537809,-0.046953,-0.022284,0.001901
2.547849,-0.008540,-0.017165,0.022328
2.557890,-0.011738,-0.008536,0.006336
2.577940,-0.033084,-0.025604,0.016879
2.577940,-0.033084,-0.025604,0.016879
2.587949,0.008527,-0.003262,0.006417
2.597990,-0.024544,-0.019214,0.014796
2.608000,-0.049088,-0.029808,0.013610
2.618040,-0.001079,-0.017190,0.022348
2.628080,0.004221,-0.014960,-0.001127
2.648130,-0.026728,-0.037352,0.012568
2.658140,-0.005361,-0.020349,0.015912
2.668180,-0.010684,-0.011733,0.004188
2.678190,-0.019243,-0.033145,0.021154
2.688230,-0.010744,-0.038471,0.012607
2.698271,-0.001079,-0.012883,0.014891
2.718321,-0.025650,-0.037396,0.021116
2.728330,0.006352,-0.025737,0.018055
2.738371,-0.011802,-0.032030,0.006225
2.748380,-0.023507,-0.032053,0.019011
2.758421,-0.005417,-0.037406,0.009422
2.768430,-0.021381,-0.032039,0.014744
2.788511,-0.018183,-0.028821,0.009427
2.788511,-0.018183,-0.028821,0.009427
2.798520,-0.024596,-0.039515,0.016837
2.808560,-0.027817,-0.040506,0.002936
2.818570,-0.001110,-0.020323,0.007378
2.828610,-0.030979,-0.034144,0.014708
2.838620,-0.069418,-0.061806,0.018744
2.858700,-0.022422,-0.022420,0.013719
2.868710,-0.040617,-0.045820,0.006080
2.878750,-0.009663,-0.041755,0.028618
2.888760,-0.008584,-0.025643,0.008401
2.898801,-0.003238,-0.028945,0.025491
2.908810,-0.021416,-0.052396,0.028535
2.928891,0.033030,-0.019467,0.028841
2.928891,0.033030,-0.019467,0.028841
2.938901,-0.048093,-0.053286,0.009229
2.948941,0.006355,-0.034366,0.036174
2.958951,-0.002204,-0.035311,0.015850
2.968991,0.002068,-0.035355,0.022271
2.979001,-0.005399,-0.040695,0.027566
2.999081,0.004213,-0.036480,0.032954
3.009091,-0.037430,-0.052258,0.010331
3.019131,0.017020,-0.029036,0.030888
3.029141,0.014882,-0.027931,0.024478
3.039181,-0.038452,-0.045933,0.028518
3.049191,-0.004335,-0.034231,0.014781
3.069272,0.018083,-0.031186,0.033017
3.079281,-0.046953,-0.035211,0.025341
3.089322,0.013804,-0.023580,0.008472
3.099332,0.019151,-0.025809,0.024500
3.109372,-0.042739,-0.044765,0.010352
3.119382,0.013848,-0.014024,0.020268
3.129422,0.044763,-0.011994,0.021431
3.139462,-0.065128,-0.047901,0.011344
3.149472,0.031945,-0.023710,0.023477
3.159512,-0.008578,-0.025663,0.012673
3.169522,-0.009672,-0.039573,0.019014
3.179562,-0.024592,-0.037374,0.015778
3.189572,0.000984,-0.029905,-0.000139
3.209653,-0.027792,-0.040587,0.020027
3.219662,-0.056621,-0.053253,0.008137
3.229703,0.027667,-0.018265,0.004263
3.239712,-0.018206,-0.038442,0.011518
3.249753,-0.071546,-0.062887,0.023005
3.259762,-0.006450,-0.022426,0.004149
3.279843,-0.050221,-0.055445,0.015622
3.289853,-0.028896,-0.051233,0.013565
3.299893,0.025542,-0.018278,0.008530
3.309903,0.000989,-0.038540,0.019048
3.319943,-0.053411,-0.057611,0.024149
3.329953,-0.031005,-0.039448,0.007205
3.350033,-0.000093,-0.043871,0.017952
3.350033,-0.000093,-0.043871,0.017952
3.360043,-0.057690,-0.057547,0.013455
3.370083,0.015926,-0.025713,0.006332
3.380093,0.004195,-0.028883,0.007352
3.390134,-0.028840,-0.041718,0.033906
3.400143,-0.025761,-0.065050,-0.002515
3.420224,0.006307,-0.034215,0.004128
3.420224,0.006307,-0.034215,0.004128
3.430234,-0.042739,-0.045843,0.012484
3.440274,-0.029943,-0.043749,0.012529
3.450284,-0.037404,-0.035105,-0.003474
3.460324,0.024442,-0.030017,0.007403
3.470334,-0.039581,-0.053268,-0.000361
3.480374,-0.035283,-0.044774,0.007168
3.490384,0.009536,-0.019244,-0.002201
3.500424,-0.006465,-0.027766,0.004124
3.510464,-0.074718,-0.047875,0.012386
3.520474,0.001000,-0.023493,-0.001177
3.530514,0.031937,-0.017221,0.006416
3.540524,-0.006513,-0.045925,0.005106
3.560574,0.043642,-0.021511,0.002155
3.560574,0.043642,-0.021511,0.002155
3.570614,-0.002244,-0.042725,0.002996
3.580655,-0.018179,-0.039606,0.031809
3.590665,-0.002210,-0.030983,0.004120
3.600705,0.016995,-0.030033,0.015928
3.610715,-0.027860,-0.048989,-0.009923
3.630765,0.053242,-0.024796,0.012848
3.640805,0.009491,-0.037414,0.000917
3.650845,-0.026790,-0.065163,0.022050
3.660855,-0.001184,-0.044865,0.002989
3.670895,0.047977,-0.002362,0.015076
3.680905,-0.001162,-0.043857,0.015813
3.700955,0.027684,-0.014008,0.007488
3.710995,-0.024646,-0.043665,-0.008820
3.721036,0.046855,-0.024801,0.018172
3.731045,-0.029934,-0.034082,0.000824
3.741086,0.040429,-0.021450,-0.008535
3.751095,-0.003267,-0.026698,0.002001
3.781186,0.007395,-0.013821,-0.018205
3.781186,0.007395,-0.013821,-0.018205
3.791226,-0.019242,-0.030994,0.017960
3.801258,-0.060855,-0.033941,-0.007806
3.811298,0.070367,0.016929,-0.014680
3.821308,0.004230,-0.020375,0.014870
3.841358,0.031983,0.000944,0.004366
3.851398,0.025524,-0.010681,-0.017071
3.861438,-0.049133,-0.039359,0.000746
3.871448,-0.040606,-0.036158,-0.004556
3.881489,-0.016095,-0.028691,-0.019408
3.891498,0.003171,-0.016085,0.011683
3.911548,-0.005378,-0.021372,0.006293
3.921589,-0.019291,-0.032993,-0.010892
3.931629,0.038318,-0.015045,-0.006375
3.941639,0.002107,-0.016087,0.012748
3.951679,-0.031028,-0.037221,-0.012012
3.961689,0.039436,-0.010904,0.020353
3.981739,-0.003219,-0.021465,0.024458
3.991779,-0.018213,-0.033037,-0.002343
4.001819,0.039440,0.005242,-0.006275
4.011829,0.009567,-0.019340,0.018095
4.021869,-0.040606,-0.029695,-0.016276
4.031879,0.035212,0.009452,0.009756
4.051929,-0.001099,-0.016051,0.007399
4.061969,0.020255,-0.002237,0.007523
4.071979,-0.028821,-0.019155,0.005171
4.082020,-0.016031,-0.015967,-0.000120
4.092060,-0.001067,-0.003226,0.005323
4.102070,0.014902,-0.005373,-0.003189
4.112110,-0.040586,-0.034067,0.005068
4.122120,-0.003229,-0.012815,0.002067
4.132160,0.019170,-0.007558,0.004290
4.142170,-0.007539,-0.024503,-0.007614
4.152210,-0.019235,-0.027785,0.016907
4.162250,-0.026760,-0.037250,-0.008796
4.172260,0.055452,0.010494,0.001271
4.192310,-0.084270,-0.025352,-0.001421
4.202350,0.083196,0.030766,-0.013511
4.212360,0.006350,-0.017113,0.001005
4.222400,-0.102445,-0.048813,0.003759
4.232441,0.037278,-0.008660,-0.001006
4.242450,0.030937,-0.001270,0.021444
4.262500,-0.000038,-0.021424,0.013785
4.272541,0.014876,-0.012833,-0.006429
4.282551,0.015963,0.001102,-0.018110
4.292591,0.014954,-0.005540,0.032062
4.302631,-0.057656,-0.027493,-0.018449
4.312641,0.078949,0.011339,0.032318
4.332691,-0.024565,-0.028840,0.017955
4.342731,0.022358,-0.008616,0.000021
4.352741,0.010631,-0.006412,-0.006410
4.362781,-0.040555,-0.024471,0.008318
4.372822,-0.018216,-0.031949,-0.006611
4.382831,0.039459,0.009488,-0.000914
4.402881,-0.116335,-0.061583,0.003660
4.402881,-0.116335,-0.061583,0.003660
4.412922,0.085283,0.005047,0.003464
4.422931,0.038324,-0.019373,0.005355
4.432972,-0.084334,-0.049924,0.000599
4.443012,0.066035,-0.021619,0.009694
4.453022,0.002096,-0.009588,-0.006449
4.473072,-0.054471,-0.051165,0.016699
4.483112,0.031907,-0.026822,0.004234
4.493122,0.063914,-0.019491,0.012903
4.503162,-0.009745,-0.055501,-0.000289
4.513202,0.043636,-0.034417,0.021322
4.523212,0.039334,-0.037511,0.000999
4.543262,0.009462,-0.054556,0.012587
4.553303,0.030767,-0.056746,0.009431
4.563312,-0.002313,-0.073746,0.013532
4.573353,0.039272,-0.065322,0.010482
4.583393,0.029670,-0.070646,0.013635
4.593403,-0.018361,-0.096120,0.013381
4.603443,0.082973,-0.061167,0.005281
4.613453,0.040300,-0.082443,0.016813
4.623493,-0.037608,-0.116328,0.008960
4.633503,0.060605,-0.064369,0.020159
4.643543,0.024311,-0.081308,0.013569
4.653553,0.016830,-0.086603,0.009251
4.663593,0.037085,-0.086684,0.012511
4.683643,0.077643,-0.064379,0.010592
4.693683,-0.014095,-0.097222,0.017661
4.703693,0.016852,-0.074826,0.002897
4.713733,0.082990,-0.063374,0.020226
4.723743,-0.038618,-0.096034,0.009053
4.733783,0.033965,-0.059991,0.015833
4.753834,0.013717,-0.053467,0.005126
4.763874,0.010517,-0.060987,0.016832
4.773884,0.010517,-0.060987,0.006215
4.783924,0.021212,-0.043905,0.010533
4.793934,-0.018257,-0.054441,0.007169
4.804022,0.011631,-0.038524,0.008396
4.824072,0.023354,-0.034250,-0.000097
4.824072,0.023354,-0.034250,-0.000097
4.834112,0.011665,-0.032167,0.019108
4.844122,-0.047025,-0.044680,-0.004614
4.854162,0.033003,-0.024766,0.020270
4.864172,-0.053389,-0.039371,0.006075
4.874212,0.005264,-0.022434,-0.002228
4.904303,0.069334,0.013597,0.013075
4.914312,-0.009636,-0.023529,0.013749
4.924353,-0.085392,-0.044561,-0.003651
4.934362,0.059746,0.009306,0.023710
4.934362,0.059746,0.009306,0.023710
4.944403,-0.059773,-0.030766,-0.002447
4.974493,-0.075781,-0.046804,0.012388
4.974493,-0.075781,-0.046804,0.012388
4.984503,0.051176,-0.001300,0.014022
4.994543,0.038365,0.002042,-0.006294
5.004553,-0.072542,-0.037253,0.023124
5.014593,0.002081,-0.016006,-0.004343
5.034643,-0.119501,-0.056288,0.015427
5.034643,-0.119501,-0.056288,0.015427
5.044684,-0.063018,-0.038145,-0.020651
5.054693,0.107784,0.039068,0.020779
5.064734,-0.082199,-0.045634,-0.004716
5.074743,-0.093958,-0.062718,0.002648
5.084784,-0.005355,-0.012828,0.006334
5.104834,0.004213,-0.023554,0.009514
5.104834,0.004213,-0.023554,0.009514
5.114874,-0.094983,-0.048842,0.004847
5.124884,0.021272,-0.010703,-0.009606
5.134924,0.015969,-0.017230,0.019190
5.144934,-0.083290,-0.052013,-0.010090
5.154974,0.019165,-0.019391,0.022394
5.185064,-0.042691,-0.038454,0.030678
5.185064,-0.042691,-0.038454,0.030678
5.195074,0.019132,-0.009593,-0.017084
5.205114,0.057602,-0.002495,0.036467
5.215124,-0.113156,-0.068001,0.003638
5.225164,0.051125,-0.012986,0.001148
5.255255,0.004247,-0.020431,0.026620
5.255255,0.004247,-0.020431,0.026620
5.265265,0.004206,-0.022456,0.003110
5.275305,0.002069,-0.032126,0.016945
5.285315,-0.049105,-0.043757,0.027431
5.295355,0.021253,-0.023569,0.001015
5.325445,0.020230,-0.022624,0.027722
5.325445,0.020230,-0.022624,0.027722
5.335455,-0.085315,-0.032955,0.026314
5.345495,0.010627,-0.011787,0.001042
5.355505,0.017103,-0.004524,0.041686
5.365545,-0.066173,-0.041500,0.013508
5.385595,0.058705,0.007078,0.043992
5.385595,0.058705,0.007078,0.043992
5.395636,-0.103532,-0.059514,0.009046
5.405645,0.024533,-0.013067,0.036325
5.415686,0.020243,-0.008660,0.010697
5.425695,-0.020280,-0.028925,0.032922
5.435736,-0.001086,-0.023633,0.029795
5.465826,-0.016061,-0.029875,0.005155
5.465826,-0.016061,-0.029875,0.005155
5.475836,0.005326,-0.021553,0.037300
5.485876,-0.060860,-0.047930,0.014560
5.495886,0.013824,-0.022568,0.020228
5.505926,-0.016031,-0.028893,0.023320
5.536017,-0.008589,-0.035320,0.022242
5.536017,-0.008589,-0.035320,0.022242
5.546026,-0.086475,-0.064969,0.021886
5.556067,0.034096,-0.018392,0.026713
5.566076,-0.020349,-0.043785,0.013623
5.576117,-0.032048,-0.042750,0.028551
5.596167,0.024465,-0.029010,0.020226
5.606207,-0.051291,-0.057583,0.016677
5.616217,0.019135,-0.027914,0.018080
5.626257,-0.013947,-0.048138,0.026439
5.636267,-0.045961,-0.056527,0.015629
5.646307,0.016999,-0.028970,0.017001
5.676367,0.022360,-0.021548,0.024529
5.676367,0.022360,-0.021548,0.024529
5.686407,-0.050242,-0.061843,0.013455
5.696447,-0.000058,-0.035363,0.025470
5.706457,-0.033160,-0.051219,0.013553
5.716497,-0.003271,-0.036380,0.016910
5.736548,-0.038459,-0.042678,0.017851
5.746557,0.011667,-0.033250,0.022307
5.756598,-0.040590,-0.043750,0.019977
5.766638,-0.014983,-0.032070,0.016898
5.776648,-0.022444,-0.032046,0.016878
5.786688,-0.033111,-0.034137,0.014702
5.806754,-0.009641,-0.026743,0.015870
5.816764,-0.021369,-0.028846,0.016896
5.826804,-0.021367,-0.024544,0.010507
5.836844,-0.035232,-0.026624,0.008322
5.846854,-0.020308,-0.023449,0.004106
5.856894,-0.000027,-0.018226,0.014869
5.876944,-0.027772,-0.028800,0.011537
5.876944,-0.027772,-0.028800,0.011537
5.886954,-0.025622,-0.019170,0.006248
5.896994,0.006377,-0.007506,0.002119
5.907035,-0.041631,-0.027667,0.007232
5.917044,-0.050185,-0.030782,-0.005625
5.927085,0.004232,-0.009610,-0.003238
5.957145,-0.026718,-0.025534,-0.002331
5.957145,-0.026718,-0.025534,-0.002331
5.967185,-0.056571,-0.030791,0.000766
5.977225,-0.036312,-0.027653,0.000837
5.987235,-0.040578,-0.027629,-0.001311
5.997275,-0.030980,-0.025525,-0.001275
6.027335,-0.013900,-0.019203,0.005212
6.027335,-0.013900,-0.019203,0.005212
6.037375,-0.053403,-0.033940,-0.013127
6.047416,-0.008568,-0.017074,0.003100
6.057425,-0.043786,-0.030818,-0.002403
6.067466,-0.012869,-0.028792,-0.000172
6.097525,0.015954,-0.017184,0.009577
6.097525,0.015954,-0.017184,0.009577
6.107566,-0.025691,-0.038342,-0.004525
6.117606,-0.008585,-0.022409,0.002007
6.127616,-0.017125,-0.025570,-0.001237
6.137656,-0.004326,-0.019178,-0.006512
6.157706,-0.037380,-0.022255,-0.010891
6.157706,-0.037380,-0.022255,-0.010891
6.167716,-0.003239,-0.012785,-0.004342
6.177756,-0.071524,-0.036027,-0.011050
6.187766,-0.040579,-0.023317,-0.009836
6.197806,-0.016029,-0.012743,-0.004377
6.207846,-0.058744,-0.034960,-0.019556
6.237906,0.004226,-0.005283,-0.014968
6.237906,0.004226,-0.005283,-0.014968
6.247947,-0.040575,-0.022254,-0.008763
6.257956,-0.071530,-0.029544,-0.027043
6.267997,0.017073,0.008498,-0.002049
6.278037,-0.072591,-0.026326,-0.029167
6.318137,0.004250,0.002183,-0.012796
6.318137,0.004250,0.002183,-0.012796
6.328147,-0.018174,-0.009461,-0.019323
6.338187,-0.053371,-0.020037,-0.017334
6.348227,-0.003236,0.001210,-0.027777
6.378287,-0.020298,-0.005168,-0.022513
6.378287,-0.020298,-0.005168,-0.022513
6.388327,-0.011757,0.000144,-0.022464
6.398337,-0.058707,-0.018921,-0.023752
6.408377,-0.024559,-0.004086,-0.022520
6.418418,-0.018175,-0.005149,-0.027848
6.438468,-0.043783,-0.015745,-0.027969
6.448478,0.010654,0.008595,-0.018090
6.458518,-0.035247,-0.010418,-0.031125
6.468528,-0.036309,-0.012581,-0.024729
6.478568,-0.002162,0.001181,-0.022433
6.488608,-0.038451,-0.010388,-0.035406
6.508658,-0.050179,-0.016798,-0.026923
6.518668,-0.013899,-0.003047,-0.023554
6.528708,-0.025625,-0.003004,-0.024654
6.538718,-0.034176,-0.010437,-0.027917
6.548758,0.008504,0.007584,-0.028782
6.558799,-0.045902,-0.010394,-0.029018
6.578849,-0.010686,0.004433,-0.026714
6.588858,-0.013892,0.005547,-0.034195
6.598899,0.018098,0.007548,-0.027688
6.608908,-0.044823,-0.003975,-0.032189
6.618949,0.009584,0.015077,-0.033017
6.628959,-0.006438,0.001235,-0.030990
6.659049,-0.034171,-0.006145,-0.032170
6.659049,-0.034171,-0.006145,-0.032170
6.669089,-0.010678,0.015178,-0.040550
6.679099,-0.006416,0.009784,-0.032018
6.689139,-0.026701,0.002420,-0.041723
6.699149,-0.033091,0.001347,-0.036404
6.719230,0.003180,0.012972,-0.035181
6.729239,-0.034151,0.001331,-0.032135
6.739280,-0.013873,0.015183,-0.039490
6.749289,-0.000017,0.011904,-0.033058
6.759330,-0.024540,0.010936,-0.037404
6.769339,0.013842,0.015078,-0.036210
6.789420,0.001027,0.009815,-0.043747
6.799430,0.016001,0.021448,-0.029764
6.809479,-0.010682,0.013037,-0.039492
6.819489,0.004260,0.018308,-0.035153
6.829529,0.010662,0.020418,-0.034057
6.839539,0.012785,0.019363,-0.038329
6.859619,-0.009617,0.015190,-0.043751
6.869629,0.033072,0.032108,-0.037144
6.879669,-0.029876,0.007744,-0.036365
6.889679,0.001035,0.014097,-0.045864
6.899719,0.025579,0.020385,-0.037220
6.909729,-0.033083,0.008863,-0.044914
6.929810,-0.008554,0.013040,-0.041622
6.939820,-0.016044,0.003463,-0.043825
6.949860,0.044777,0.029974,-0.045668
6.959870,-0.036314,-0.003947,-0.043916
6.969910,0.021294,0.017235,-0.045793
6.979920,0.011686,0.009776,-0.042650
7.000000,0.039406,0.017197,-0.050016
7.010010,0.007395,0.001261,-0.045907
7.020050,-0.049125,-0.007068,-0.052512
7.030060,0.054359,0.026744,-0.046725
7.040100,-0.029940,-0.006058,-0.053522
7.050110,-0.014997,0.001364,-0.052377
7.070160,-0.066232,-0.023001,-0.059044
7.080200,0.037264,0.014005,-0.051105
7.090241,0.005245,-0.001905,-0.052337
7.100251,-0.042771,-0.018811,-0.057891
7.110291,0.068174,0.019284,-0.059540
7.120301,-0.004377,-0.010397,-0.056677
7.140351,0.068188,0.020317,-0.052058
7.150391,-0.035340,-0.023051,-0.069641
7.160431,0.024413,-0.002995,-0.060835
7.170441,0.041473,0.000158,-0.061841
7.180481,-0.047080,-0.028348,-0.070766
7.190491,0.080956,0.017112,-0.060583
7.210541,-0.026828,-0.027341,-0.071774
7.210541,-0.026828,-0.027341,-0.071774
7.220581,0.070285,0.013958,-0.063833
7.230622,-0.039644,-0.030447,-0.083574
7.240631,0.023332,-0.006175,-0.065126
7.250672,0.020109,-0.005006,-0.084357
7.260681,-0.015110,-0.025207,-0.079209
7.280731,-0.014060,-0.024082,-0.092019
7.280731,-0.014060,-0.024082,-0.092019
7.290772,0.012652,-0.010377,-0.072653
7.300812,-0.002327,-0.018765,-0.095166
7.310822,0.012625,-0.013525,-0.084418
7.320862,-0.006584,-0.020923,-0.087711
7.330872,0.007274,-0.013437,-0.099387
7.350922,-0.035416,-0.024964,-0.116651
7.360962,0.063823,0.008806,-0.099126
7.371002,-0.006582,-0.023084,-0.082380
7.381012,-0.054656,-0.045193,-0.116800
7.391053,0.115032,0.028946,-0.102094
7.401062,-0.002340,-0.020876,-0.100517
7.421112,0.093681,0.019429,-0.107539
7.431153,-0.006620,-0.017577,-0.117605
7.441162,-0.011977,-0.030401,-0.112339
7.451203,0.059519,0.003561,-0.116254
7.461243,-0.013041,-0.029324,-0.113405
7.471253,0.041374,0.000472,-0.128069
7.491303,-0.072776,-0.038666,-0.129638
7.501343,0.085099,0.021790,-0.149212
7.511353,0.018937,-0.015439,-0.135684
7.521393,-0.071738,-0.042890,-0.140337
7.531433,0.094719,0.024902,-0.136352
7.541443,-0.007745,-0.018465,-0.155000
7.561493,0.030680,0.003852,-0.157993
7.571533,0.000810,-0.005657,-0.159188
7.581543,0.022122,-0.010023,-0.153809
7.591584,-0.001374,-0.018410,-0.171005
7.601624,0.043507,0.009080,-0.142977
7.611634,0.011404,-0.019494,-0.176316
7.631684,0.023177,-0.002450,-0.175135
7.631684,0.023177,-0.002450,-0.175135
7.641724,0.018880,-0.010949,-0.181596
7.651734,0.061597,0.008034,-0.160024
7.661774,-0.033411,-0.035342,-0.181856
7.671814,0.078654,0.017660,-0.174886
7.681824,0.043418,-0.003564,-0.179357
7.701874,0.080762,0.010188,-0.177052
7.711914,0.002868,-0.018358,-0.184880
7.721924,0.061532,0.001778,-0.192100
7.731964,0.074352,0.005947,-0.179226
7.742005,-0.017421,-0.028941,-0.191395
7.752014,0.061537,0.006070,-0.196352
7.772064,-0.016387,-0.034228,-0.203168
7.782105,0.087150,0.012344,-0.185570
7.792115,0.029504,-0.007644,-0.210393
7.802194,0.039138,-0.006728,-0.184725
7.812234,0.040160,-0.013058,-0.201843
7.822244,0.082863,0.015663,-0.206930
7.842294,0.010234,-0.035317,-0.216986
7.852334,0.119123,0.021937,-0.203596
7.862344,-0.008882,-0.015005,-0.208397
7.872384,0.019894,-0.011864,-0.214712
7.882394,0.109509,0.018805,-0.212183
7.892434,-0.041999,-0.037273,-0.219276
7.912484,0.063622,-0.000254,-0.215604
7.922525,-0.038821,-0.036145,-0.234217
7.932534,0.093501,0.020001,-0.228245
7.942575,0.020926,-0.012839,-0.235010
7.952584,0.012354,-0.026669,-0.240440
7.962625,0.072142,0.006202,-0.231574
7.982675,0.129734,0.022049,-0.234544
7.992715,-0.027162,-0.044595,-0.261998
8.002725,0.039007,-0.009547,-0.265922
8.012765,0.124347,0.012557,-0.255968
8.022775,-0.051697,-0.047678,-0.270626
8.032815,0.115801,0.013723,-0.270941
8.052865,0.009092,-0.025378,-0.285308
8.062905,0.112606,0.016957,-0.275208
8.072915,0.005877,-0.028541,-0.291741
8.082956,0.074135,-0.009525,-0.294667
8.092965,0.101884,0.005346,-0.296656
8.103006,0.000527,-0.030614,-0.301380
8.123056,0.067719,-0.007282,-0.312834
8.133096,0.079486,-0.000994,-0.295680
8.143106,0.018630,-0.029545,-0.314143
8.153146,0.113579,0.006477,-0.317983
8.163156,0.023997,-0.017835,-0.309800
8.173196,0.033593,-0.012491,-0.317226
8.193246,0.010086,-0.035924,-0.314197
8.203286,0.049585,-0.006095,-0.325697
8.213296,0.129597,0.017099,-0.316820
8.223336,-0.016583,-0.042225,-0.318573
8.233346,0.078383,0.002360,-0.326645
8.243386,0.154098,0.012748,-0.316773
8.263436,0.125300,0.011834,-0.329676
8.273477,0.084767,-0.004088,-0.322386
8.283487,-0.009142,-0.040033,-0.335634
8.293527,0.129582,0.019301,-0.330697
8.303537,0.042063,-0.025268,-0.331149
8.313577,0.015386,-0.030465,-0.342998
8.333627,0.008987,-0.027200,-0.351546
8.343667,0.075142,-0.008263,-0.336319
8.353677,0.077156,-0.034827,-0.366349
8.363717,0.081512,-0.016822,-0.337410
8.373727,0.066590,-0.009233,-0.351302
8.383767,0.065483,-0.015561,-0.367358
8.393777,0.066607,-0.004976,-0.348077
8.403817,0.030292,-0.019693,-0.372816
8.413858,0.113483,-0.000761,-0.368224
8.423867,0.032411,-0.028279,-0.365373
8.423867,0.032411,-0.028279,-0.365373
8.443917,0.113505,0.008866,-0.371383
8.443917,0.113505,0.008866,-0.371383
8.453958,0.031291,-0.038874,-0.382518
8.494058,0.087867,-0.000561,-0.392862
8.494058,0.087867,-0.000561,-0.392862
8.514108,0.040999,0.009203,-0.392946
8.514108,0.040999,0.009203,-0.392946
8.524148,0.077183,-0.005831,-0.400394
8.554238,0.034510,-0.013102,-0.414433
8.564248,0.105062,0.058180,-0.405355
8.574289,0.073707,0.006914,-0.608645
8.584298,0.081237,-0.011645,-0.528596
8.584298,0.081237,-0.011645,-0.528596
8.594339,0.102602,0.017216,-0.548697
8.624398,0.166480,0.034465,-0.626418
8.634439,0.016048,-0.022726,-0.624968
8.634439,0.016048,-0.022726,-0.624968
8.654489,0.094981,0.008054,-0.638491
8.654489,0.094981,0.008054,-0.638491
8.664529,0.049031,-0.012958,-0.680378
8.694589,0.137520,0.022213,-0.725900
8.694589,0.137520,0.022213,-0.725900
8.714669,0.110782,0.018286,-0.780471
8.714669,0.110782,0.018286,-0.780471
8.724679,0.127807,0.010776,-0.784733
8.734719,0.095708,-0.005959,-0.837243
8.754769,0.143618,0.015593,-0.910715
8.764779,0.106220,-0.003377,-0.938682
8.774820,0.095478,0.007696,-1.014502
8.784860,0.147698,0.014004,-1.029283
8.794870,0.077194,-0.001417,-1.107531
8.804922,0.128321,0.017908,-1.163913
8.834982,0.087521,0.009294,-1.346731
8.834982,0.087521,0.009294,-1.346731
8.845022,0.113056,0.025508,-1.405336
8.855062,0.088415,0.011988,-1.465288
8.865072,0.119364,0.025760,-1.463001
8.875112,0.119402,0.047185,-1.476786
8.905172,0.128956,0.035426,-1.481088
8.905172,0.128956,0.035426,-1.481088
8.915212,0.116139,0.016164,-1.464123
8.925253,0.101248,0.019351,-1.450262
8.935262,0.125711,0.016199,-1.477983
8.945303,0.105611,0.025481,-1.394674
8.975363,0.094651,-0.040453,-0.769043
8.975363,0.094651,-0.040453,-0.769043
8.985403,0.069311,-0.063748,-0.568400
8.995413,0.132466,-0.019575,-0.467604
9.005453,0.092973,-0.047269,-0.456094
9.015493,0.104739,-0.029127,-0.461316
9.045553,0.090862,-0.033323,-0.467784
9.045553,0.090862,-0.033323,-0.467784
9.055593,0.100474,-0.024801,-0.469854
9.065603,0.106822,-0.038674,-0.476311
9.075643,0.080215,-0.027939,-0.469924
9.085684,0.099398,-0.021533,-0.482660
9.115743,0.085555,-0.013987,-0.488003
9.115743,0.085555,-0.013987,-0.488003
9.125784,0.087638,-0.029998,-0.491278
9.135793,0.087599,-0.044954,-0.490280
9.145834,0.100455,-0.017199,-0.496523
9.155874,0.104661,-0.038576,-0.495544
9.185934,0.106804,-0.034311,-0.495518
9.185934,0.106804,-0.034311,-0.495518
9.195974,0.108846,-0.065273,-0.498864
9.205984,0.120694,-0.012922,-0.511402
9.216024,0.129193,-0.029019,-0.500772
9.226064,0.113099,-0.068486,-0.499935
9.246114,0.126027,-0.020491,-0.495400
9.246114,0.126027,-0.020491,-0.495400
9.256124,0.140830,-0.057866,-0.506218
9.266165,0.146140,-0.061057,-0.512627
9.276174,0.128147,-0.025847,-0.493283
9.286215,0.149386,-0.045063,-0.509338
9.296255,0.145123,-0.051513,-0.497630
9.316305,0.157924,-0.045126,-0.501837
9.326315,0.143063,-0.029110,-0.491120
9.336355,0.172750,-0.076114,-0.508352
9.346365,0.167516,-0.050543,-0.492222
9.356405,0.161090,-0.054733,-0.505079
9.366415,0.150419,-0.061121,-0.501934
9.396505,0.174892,-0.072923,-0.507263
9.396505,0.174892,-0.072923,-0.507263
9.406545,0.160051,-0.045118,-0.505036
9.416555,0.153582,-0.069640,-0.509443
9.426595,0.176992,-0.080370,-0.514770
9.436605,0.188817,-0.047332,-0.508172
9.456686,0.191928,-0.076157,-0.512572
9.456686,0.191928,-0.076157,-0.512572
9.466696,0.198355,-0.062274,-0.516762
9.476736,0.188754,-0.067603,-0.512541
9.486746,0.189790,-0.076129,-0.516851
9.496786,0.199420,-0.057965,-0.525284
9.506796,0.191961,-0.064409,-0.512517
9.526876,0.190846,-0.081488,-0.513669
9.536886,0.181314,-0.050406,-0.530639
9.546926,0.196146,-0.080336,-0.535013
9.556936,0.176964,-0.081357,-0.531866
9.566976,0.168471,-0.059889,-0.548879
9.576986,0.151381,-0.079107,-0.538335
9.597067,0.133244,-0.080066,-0.549072
9.607076,0.118359,-0.066129,-0.550116
9.617117,0.114057,-0.078920,-0.552324
9.627126,0.119279,-0.110915,-0.565280
9.637167,0.089553,-0.071330,-0.559834
9.647177,0.100164,-0.086295,-0.564148
9.667257,0.106589,-0.073486,-0.567274
9.667257,0.106589,-0.073486,-0.567274
9.677267,0.096965,-0.093821,-0.551374
9.687307,0.118292,-0.079921,-0.569409
9.697317,0.115122,-0.079997,-0.551258
9.707357,0.123653,-0.072498,-0.561881
9.717367,0.119388,-0.080021,-0.549110
9.737417,0.124791,-0.051189,-0.552164
9.747457,0.123728,-0.053347,-0.546836
9.757498,0.132110,-0.103547,-0.551323
9.767507,0.114094,-0.067188,-0.549064
9.777548,0.111968,-0.067197,-0.545865
9.787557,0.123649,-0.083259,-0.544841
9.807633,0.126956,-0.048068,-0.536120
9.817674,0.139609,-0.097229,-0.537385
9.827714,0.145055,-0.059914,-0.527580
9.837724,0.141972,-0.017177,-0.529523
9.847764,0.154653,-0.058888,-0.525412
9.857774,0.164198,-0.072772,-0.531861
9.887864,0.153647,-0.040760,-0.518920
9.887864,0.153647,-0.040760,-0.518920
9.897904,0.171787,-0.031192,-0.522029
9.907914,0.174991,-0.033379,-0.513485
9.917954,0.169607,-0.049345,-0.521053
9.927964,0.167531,-0.030126,-0.518831
9.948014,0.185575,-0.061185,-0.512519
9.958055,0.185653,-0.030195,-0.516645
9.968095,0.182480,-0.022719,-0.514482
9.978105,0.194153,-0.046297,-0.504947
9.988145,0.203778,-0.029196,-0.514454
9.998155,0.191004,-0.029205,-0.503807
10.018205,0.203810,-0.021756,-0.506941
10.028245,0.198411,-0.050603,-0.500683
10.038255,0.187801,-0.031330,-0.503826
10.048295,0.181465,-0.009951,-0.503742
10.058335,0.177143,-0.031296,-0.503855
10.068345,0.165450,-0.020583,-0.502769
10.088395,0.140924,-0.021541,-0.509250
10.088395,0.140924,-0.021541,-0.509250
10.098435,0.138773,-0.031166,-0.505029
10.108445,0.128222,0.008387,-0.505939
10.118485,0.106814,-0.027879,-0.500829
10.128526,0.113250,-0.011870,-0.502872
10.138536,0.128258,0.016890,-0.497353
10.158586,0.095081,-0.029966,-0.503007
10.168626,0.102688,0.018021,-0.493146
10.178636,0.115394,-0.010840,-0.496452
10.188676,0.108967,-0.024722,-0.492262
10.198716,0.105861,0.005160,-0.485720
10.208726,0.122871,-0.011992,-0.483618
10.228776,0.106921,-0.006672,-0.468682
10.238816,0.121822,-0.012045,-0.471871
10.248826,0.111094,-0.043025,-0.462433
10.258866,0.097320,-0.013079,-0.462329
10.268907,0.106963,0.002889,-0.457954
10.278916,0.100486,-0.032377,-0.448525
10.298966,0.078209,0.002912,-0.443079
10.309007,0.079170,-0.038771,-0.436864
10.319016,0.086602,-0.047324,-0.440088
10.329057,0.070759,-0.001407,-0.428165
10.339097,0.086634,-0.040962,-0.430444
10.349107,0.081296,-0.048455,-0.423017
10.369157,0.082458,-0.018602,-0.413259
10.379197,0.093018,-0.059259,-0.404876
10.389207,0.087767,-0.029329,-0.406885
10.399247,0.091026,-0.016606,-0.389725
10.409257,0.105833,-0.055074,-0.395207
10.419297,0.094161,-0.045506,-0.378103
10.439347,0.120794,-0.048786,-0.380181
10.449388,0.116574,-0.042445,-0.363071
10.459397,0.116630,-0.021077,-0.365106
10.469438,0.114462,-0.037114,-0.359847
10.479447,0.113403,-0.039287,-0.351315
10.489488,0.121961,-0.029718,-0.348041
10.509538,0.110210,-0.047906,-0.333205
10.519578,0.124116,-0.033030,-0.326687
10.529588,0.122025,-0.023458,-0.317033
10.539628,0.110272,-0.036255,-0.312853
10.549638,0.111328,-0.042691,-0.307540
10.559678,0.101816,-0.015982,-0.303167
10.579728,0.094328,-0.033105,-0.290450
10.579728,0.094328,-0.033105,-0.290450
10.589768,0.090136,-0.011774,-0.281815
10.599778,0.082679,-0.012838,-0.277568
10.609818,0.069911,-0.010711,-0.266911
10.619828,0.081651,-0.007570,-0.261522
10.629869,0.090146,-0.019345,-0.261555
10.649919,0.080604,-0.005471,-0.252970
10.659959,0.078488,-0.002281,-0.248688
10.669969,0.076330,-0.014042,-0.244476
10.680009,0.075252,-0.021539,-0.239174
10.690019,0.078581,0.021122,-0.229349
10.700059,0.078475,-0.016245,-0.231662
10.720109,0.064690,0.006201,-0.226253
10.730149,0.065723,-0.004471,-0.228437
10.740159,0.055049,-0.013006,-0.223166
10.750199,0.054001,-0.006595,-0.223139
10.760209,0.051872,-0.008749,-0.217814
10.770249,0.045452,-0.017266,-0.218940
10.780259,0.046529,-0.012998,-0.218917
10.790299,0.036972,-0.004459,-0.211425
10.800340,0.029452,-0.022559,-0.217941
10.810380,0.018812,-0.018273,-0.213677
10.820421,0.026315,-0.003351,-0.212518
10.830431,0.019882,-0.020443,-0.207275
10.840471,0.021984,-0.026822,-0.214777
10.860521,0.012464,-0.008707,-0.199763
10.870561,0.007057,-0.033216,-0.207371
10.880571,0.011378,-0.015101,-0.201932
10.890611,0.022053,-0.011957,-0.196547
10.900621,0.013464,-0.032199,-0.200939
10.910661,0.007112,-0.017233,-0.199818
10.930711,0.024103,-0.044022,-0.192420
10.940752,0.016712,-0.023752,-0.182731
10.950761,0.013542,-0.011980,-0.185888
10.960802,0.000727,-0.024784,-0.179575
10.970811,0.022073,-0.016330,-0.175203
10.980852,0.033740,-0.032346,-0.183792
11.000902,0.010355,-0.015234,-0.173094
11.010911,0.006082,-0.020575,-0.169926
11.020952,0.016728,-0.024881,-0.169917
11.030992,0.008214,-0.022738,-0.165658
11.041002,0.019986,-0.002460,-0.170871
11.051042,0.008241,-0.014205,-0.163481
11.071092,0.011466,-0.004609,-0.162359
11.071092,0.011466,-0.004609,-0.162359
11.081102,0.014667,-0.004629,-0.160213
11.091142,0.023152,-0.014223,-0.169849
11.101182,0.021090,0.009264,-0.166539
11.111192,0.028500,-0.009988,-0.165542
11.121233,0.016864,0.025317,-0.170748
11.141283,0.021025,-0.010997,-0.173044
11.151292,0.018993,0.016700,-0.156896
11.161333,0.032742,-0.017478,-0.165565
11.171373,0.021090,0.010342,-0.168671
11.181383,0.022154,0.006036,-0.162279
11.191423,0.035948,-0.014284,-0.165541
11.211473,0.039190,-0.000432,-0.161194
11.221483,0.038104,-0.007904,-0.161232
11.231523,0.039208,-0.002644,-0.145181
11.241563,0.049822,-0.010078,-0.161210
11.251573,0.039195,-0.006910,-0.146270
11.261613,0.058384,-0.001603,-0.152601
11.281663,0.046690,0.002651,-0.140863
11.291673,0.049858,-0.013423,-0.131316
11.301713,0.055176,-0.014483,-0.136647
11.311754,0.048864,0.013283,-0.132261
11.321764,0.056318,0.001431,-0.115205
11.331804,0.056272,-0.008120,-0.128068
11.361864,0.042484,0.008946,-0.114139
11.361864,0.042484,0.008946,-0.114139
11.371904,0.030748,-0.002823,-0.101409
11.381914,0.048854,-0.003920,-0.107773
11.391954,0.038261,0.008834,-0.087446
11.401994,0.027550,-0.007120,-0.093960
11.422044,0.039370,0.023776,-0.086304
11.432054,0.042506,0.004568,-0.091727
11.442094,0.046730,-0.011480,-0.088587
11.452104,0.030808,0.009911,-0.084257
11.462144,0.048895,0.002412,-0.091720
11.472185,0.041433,-0.005100,-0.078957
11.492235,0.045730,0.006628,-0.077822
11.502244,0.041421,-0.012601,-0.073652
11.512285,0.029761,0.013088,-0.077835
11.522295,0.039331,0.005586,-0.078913
11.532335,0.028599,-0.023229,-0.075874
11.542375,0.007353,0.007856,-0.085400
11.562425,0.029662,-0.019993,-0.083333
11.562425,0.029662,-0.019993,-0.083333
11.572435,0.009485,0.005693,-0.081131
11.582475,-0.002258,-0.004979,-0.074805
11.592485,0.020051,-0.026364,-0.084458
11.602525,0.005213,-0.002882,-0.071570
11.612566,0.020131,-0.003998,-0.071534
11.632616,-0.010823,-0.023141,-0.067437
11.642625,0.003035,-0.021040,-0.069525
11.652666,0.027628,0.012022,-0.076778
11.662675,0.000936,-0.009286,-0.069475
11.672716,-0.011908,-0.030618,-0.066407
11.682725,0.009528,0.014176,-0.068272
11.692766,0.011541,-0.028543,-0.069537
11.702806,-0.000081,0.004565,-0.061935
11.712816,-0.005374,0.014163,-0.055495
11.722856,0.012650,-0.022220,-0.052413
11.732866,0.024384,-0.014752,-0.058754
11.742906,0.004249,0.017265,-0.040499
11.752916,0.031895,-0.005241,-0.042665
11.772996,0.008458,-0.000888,-0.043778
11.783006,0.019103,-0.001960,-0.050163
11.793046,0.029807,0.006478,-0.035138
11.803098,0.024417,-0.005161,-0.054436
11.813139,-0.001157,-0.011557,-0.039582
11.823148,0.014810,-0.015855,-0.044899
11.843229,-0.001132,0.007752,-0.057650
11.853239,-0.006450,-0.001958,-0.033142
11.863279,0.011601,-0.020116,-0.044928
11.873289,-0.000110,-0.007192,-0.059854
11.883329,-0.007487,0.009803,-0.035225
11.893339,0.027546,-0.023266,-0.067331
11.913419,0.030807,0.001296,-0.069343
11.923429,0.019092,-0.012695,-0.038463
11.933469,0.028664,-0.015895,-0.045929
11.943479,0.022256,-0.015834,-0.054492
11.953519,0.010551,-0.012622,-0.048100
11.963529,0.022335,0.014079,-0.056487
11.973569,0.019110,-0.003059,-0.043758
11.983579,0.011555,-0.026433,-0.064186
11.993619,-0.005406,0.003494,-0.057682
12.003660,0.024378,-0.014732,-0.063027
12.013670,0.007321,-0.023281,-0.050296
12.023710,0.007373,0.000254,-0.058730
12.033720,0.003081,-0.007182,-0.064118
12.063810,0.002066,0.002357,-0.048053
12.073850,0.005187,-0.017879,-0.062027
12.083860,0.011657,0.012023,-0.066140
12.093900,0.000886,-0.034982,-0.055710
12.103910,0.001977,-0.019984,-0.066318
12.123960,-0.009718,-0.021115,-0.044992
12.134000,0.014807,-0.002918,-0.070475
12.134000,0.014807,-0.002918,-0.070475
12.154050,0.016866,-0.024238,-0.080184
12.164091,0.005242,-0.005129,-0.048079
12.174100,0.012720,-0.000897,-0.044834
12.204191,0.014812,0.002452,-0.076859
12.214231,0.017024,0.014040,-0.044751
12.224241,0.020118,-0.019035,-0.053445
12.224241,0.020118,-0.019035,-0.053445
12.234281,-0.002243,-0.008258,-0.058797
12.244291,-0.015064,-0.024276,-0.050363
12.274381,0.006291,-0.007233,-0.055564
12.274381,0.006291,-0.007233,-0.055564
12.284391,-0.003334,-0.010330,-0.071628
12.304472,0.031858,-0.002969,-0.071496
12.304472,0.031858,-0.002969,-0.071496
12.324522,0.004196,0.001277,-0.046984
12.344572,0.038306,-0.004234,-0.034097
12.344572,0.038306,-0.004234,-0.034097
12.354581,0.036107,-0.009400,-0.069379
12.364622,-0.005435,-0.015804,-0.041750
12.374662,0.010616,0.016258,-0.057577
12.384672,0.016944,-0.016945,-0.041694
12.394712,0.029770,0.001209,-0.050118
12.424772,0.024430,0.008803,-0.071461
12.424772,0.024430,0.008803,-0.071461
12.434812,0.017005,-0.006367,-0.020279
12.444852,0.001964,-0.031792,-0.053556
12.454862,-0.022455,0.000305,-0.049198
12.464902,0.012748,0.011938,-0.049046
12.494962,-0.015040,-0.010347,-0.059910
12.494962,-0.015040,-0.010347,-0.059910
12.505003,0.000949,-0.011482,-0.056667
12.515043,0.004170,-0.011569,-0.040635
12.525053,0.008329,-0.033872,-0.069571
12.535093,-0.015036,-0.013592,-0.051380
12.565153,-0.000168,-0.037170,-0.043973
12.565153,-0.000168,-0.037170,-0.043973
12.575193,0.021116,-0.032831,-0.072735
12.585233,-0.018191,-0.004021,-0.040661
12.595243,-0.005482,-0.021043,-0.063139
12.605283,0.007274,-0.044675,-0.042920
12.635343,-0.016188,-0.045631,-0.050467
12.635343,-0.016188,-0.045631,-0.050467
12.645383,0.008438,0.001329,-0.060859
12.655393,0.014885,0.011916,-0.045836
12.665433,0.003030,-0.032873,-0.051421
12.675474,-0.015096,-0.028482,-0.064269
12.695524,0.016943,-0.009404,-0.055545
12.695524,0.016943,-0.009404,-0.055545
12.705534,0.020179,-0.000916,-0.045882
12.715574,0.001064,0.018313,-0.034093
12.725584,0.017925,-0.039304,-0.056752
12.735624,0.002002,-0.020065,-0.049227
12.745664,0.009506,-0.006221,-0.045936
12.765714,-0.006426,0.005507,-0.030970
12.765714,-0.006426,0.005507,-0.030970
12.775724,0.011541,-0.041470,-0.046097
12.785764,0.029750,-0.009501,-0.043759
12.795774,0.005356,0.033291,-0.042556
12.805828,-0.001243,-0.038214,-0.048254
12.815869,0.015963,0.005409,-0.025567
12.835919,0.006262,-0.032995,-0.027912
12.845928,0.011645,0.001288,-0.054441
12.855969,-0.001104,0.007666,-0.039491
12.865978,-0.005424,-0.015840,-0.034273
12.876019,-0.002194,0.002360,-0.045928
12.886059,0.005265,-0.005200,-0.033125
12.906109,0.011687,0.001156,-0.026668
12.916119,0.003087,-0.010432,-0.054520
12.926159,-0.012858,-0.008360,-0.029985
12.936169,0.010604,-0.007404,-0.022438
12.946209,0.029688,-0.021152,-0.064111
12.956219,-0.006324,0.032114,-0.011616
12.976300,-0.038438,-0.010428,-0.026861
12.976300,-0.038438,-0.010428,-0.026861
12.986309,-0.027730,0.007692,-0.026746
12.996350,0.005229,-0.002933,-0.060888
13.006359,-0.019241,-0.004068,-0.029982
13.016400,-0.009753,-0.032852,-0.047184
13.026409,-0.036277,0.006707,-0.038524
13.056500,-0.009636,0.010943,-0.049113
13.056500,-0.009636,0.010943,-0.049113
13.066540,-0.016203,-0.061741,-0.031315
13.076550,-0.013954,-0.008261,-0.050284
13.086590,-0.024568,-0.009441,-0.019340
13.096600,-0.002190,-0.004118,-0.031004
13.126690,-0.000168,-0.031785,-0.053561
13.126690,-0.000168,-0.031785,-0.053561
13.136730,-0.008631,-0.023340,-0.026840
13.146740,0.009530,-0.012760,-0.018194
13.156780,0.009431,-0.030758,-0.051394
13.166790,-0.018251,-0.050149,0.002917
13.186871,-0.024629,-0.034023,-0.015184
13.186871,-0.024629,-0.034023,-0.015184
13.196881,-0.006482,-0.014783,-0.031066
13.206921,0.008412,-0.020131,-0.039596
13.216931,-0.018299,-0.052153,-0.024866
13.226971,-0.000176,-0.039301,-0.045051
13.236981,-0.018181,-0.004051,-0.034252
13.267071,-0.006558,-0.043628,-0.029066
13.267071,-0.006558,-0.043628,-0.029066
13.277111,0.007338,-0.025488,-0.035351
13.287121,-0.014022,-0.047900,-0.023766
13.297161,0.012621,-0.041519,-0.036481
13.307171,-0.002309,-0.045752,-0.034406
13.337261,-0.000179,-0.045754,-0.035468
13.337261,-0.000179,-0.045754,-0.035468
13.347302,0.007294,-0.044741,-0.029033
13.357311,0.007461,0.016131,-0.028745
13.367352,0.002934,-0.071349,-0.045194
13.377362,-0.028881,-0.028660,-0.017307
13.397412,-0.032156,-0.051025,-0.028104
13.397412,-0.032156,-0.051025,-0.028104
13.407452,-0.009646,-0.000875,-0.034214
13.417492,-0.013939,-0.009384,-0.038539
13.427502,-0.017230,-0.053245,-0.020596
13.437542,-0.014976,0.003455,-0.042754
13.447552,-0.029953,-0.024329,-0.029040
13.467602,-0.023498,-0.004074,-0.025721
13.477642,-0.006472,-0.016970,-0.020394
13.487683,0.007366,-0.015881,-0.034238
13.497692,-0.011767,-0.007367,-0.015022
13.507733,0.000973,-0.020178,-0.024662
13.517742,-0.004347,-0.011571,-0.034250
13.547833,-0.017178,-0.036173,-0.017310
13.547833,-0.017178,-0.036173,-0.017310
13.557842,0.011644,-0.019175,-0.018218
13.567883,0.021232,-0.013806,-0.030985
13.577923,-0.005446,-0.037315,-0.009805
13.587933,0.007382,-0.017010,-0.021424
13.607983,-0.004337,-0.023450,-0.006532
13.618023,0.007332,-0.035165,-0.021510
13.628033,0.001981,-0.050159,-0.008778
13.638073,0.019158,0.002175,-0.021301
13.648113,0.007328,-0.037306,-0.020452
13.658123,0.009407,-0.069462,0.002902
13.688214,-0.004491,-0.055281,-0.050480
13.688214,-0.004491,-0.055281,-0.050480
13.698223,-0.003173,0.003164,0.010688
13.708264,-0.019323,-0.047974,-0.004553
13.718304,0.014681,-0.068229,-0.035533
13.728314,0.011761,0.016001,-0.004165
13.758404,0.015973,0.006457,-0.021290
13.758404,0.015973,0.006457,-0.021290
13.768414,-0.007721,-0.084251,-0.019648
13.778454,-0.003267,-0.021313,-0.007587
13.788494,0.018101,0.005382,-0.021289
13.798504,0.006231,-0.054440,-0.009854
13.828629,0.001961,-0.053327,-0.016270
13.828629,0.001961,-0.053327,-0.016270
13.838639,0.006307,-0.021288,-0.019311
13.848679,-0.001168,-0.027682,-0.017226
13.858689,0.000882,-0.057591,-0.017361
13.868730,0.014872,-0.012818,-0.009633
13.878770,0.020048,-0.060826,-0.023733
13.888780,0.016911,-0.048082,-0.006590
13.898820,0.016954,-0.022365,-0.024628
13.908830,-0.005500,-0.058688,-0.006702
13.918870,0.022278,-0.020212,-0.032080
13.928880,-0.004426,-0.053332,-0.010947
13.938920,0.002958,-0.072503,-0.027040
13.948960,-0.000140,-0.039412,-0.021551
13.958970,-0.012935,-0.044741,-0.015202
13.969010,-0.002334,-0.058598,-0.028057
13.979020,-0.005504,-0.053288,-0.019495
13.989060,-0.002341,-0.063962,-0.022742
13.999070,0.003052,-0.043714,-0.017290
14.009110,0.015801,-0.054400,-0.024783
14.019151,-0.000186,-0.055426,-0.022695
14.029160,-0.026804,-0.052191,-0.011003
14.039201,-0.000162,-0.043653,-0.027981
14.049210,0.006226,-0.052268,-0.017321
14.059251,0.000895,-0.051168,-0.020536
14.069261,0.005194,-0.036216,-0.023658
14.079301,-0.007565,-0.023344,-0.026837
14.089341,-0.017242,-0.060746,-0.015290
14.099351,-0.006490,-0.026607,-0.015099
14.109391,-0.002229,-0.013689,-0.039595
14.119401,-0.019275,-0.033043,-0.000210
14.129441,-0.001120,0.001254,-0.038453
14.139451,-0.029955,-0.028631,-0.022651
14.149491,-0.026717,-0.019075,-0.012983
14.159501,-0.010713,0.002363,-0.040611
14.169541,-0.027753,-0.009471,-0.010804
14.179582,-0.011780,-0.003014,-0.032093
14.189591,-0.042710,-0.014696,-0.024756
14.199632,-0.044776,0.013112,-0.032108
14.209641,-0.033122,-0.008249,-0.039654
14.219682,-0.035178,0.007676,-0.018221
14.229691,-0.036268,0.007755,-0.034246
14.239732,-0.037303,0.015204,-0.027805
14.249772,-0.027727,0.007682,-0.024609
14.259782,-0.011839,-0.025450,-0.030063
14.269822,-0.017022,0.025812,-0.026630
14.279832,-0.024520,0.014104,-0.029911
14.289872,-0.023534,-0.019040,-0.022588
14.299882,-0.010663,0.012976,-0.026673
14.309922,0.002005,-0.030845,-0.027914
14.319962,-0.010727,-0.012674,-0.022522
14.329972,-0.007484,0.010870,-0.035220
14.340012,-0.018216,-0.024407,-0.020462
14.350022,-0.023542,-0.023322,-0.020471
14.360063,-0.014012,-0.038238,-0.034402
14.370072,0.002034,-0.026629,-0.016144
14.380113,-0.004364,-0.024442,-0.022560
14.390153,-0.015117,-0.048884,-0.040865
14.400163,-0.025656,-0.019064,-0.016184
14.410203,-0.005556,-0.064974,-0.032369
14.420213,-0.014079,-0.072498,-0.016405
14.430253,-0.009686,-0.014753,-0.035348
14.450303,-0.024667,-0.051140,-0.008856
14.450303,-0.024667,-0.051140,-0.008856
14.460313,-0.003421,-0.063913,-0.032358
14.470353,0.026489,-0.042682,-0.025766
14.480393,0.020043,-0.067274,-0.015218
14.490403,0.005158,-0.043640,-0.034375
14.500443,-0.001192,-0.037298,-0.016203
14.520493,0.028591,-0.051212,-0.030073
14.530503,0.017956,-0.052327,-0.013016
14.540543,0.035073,-0.023502,-0.022447
14.550584,0.027539,-0.053405,-0.017268
14.560594,0.017960,-0.042644,-0.027926
14.570634,0.020098,-0.043750,-0.021516
14.590684,-0.002271,-0.022172,-0.052454
14.590684,-0.002271,-0.022172,-0.052454
14.600694,-0.023562,-0.028647,-0.023701
14.610734,-0.010869,-0.065008,-0.021702
14.620774,0.005198,-0.014685,-0.059875
14.630784,-0.031976,0.006572,-0.012876
14.640824,-0.013044,-0.055167,-0.068663
14.660874,-0.042801,-0.033797,-0.050484
14.670884,-0.017236,-0.033835,-0.060028
14.680924,-0.025679,-0.009295,-0.049253
14.690965,-0.023572,-0.005992,-0.071664
14.700974,-0.023707,-0.060502,-0.062308
14.711015,-0.026813,-0.017694,-0.079206
14.721024,-0.024673,-0.013419,-0.081316
14.731065,-0.008743,-0.035912,-0.078174
14.741075,-0.010854,-0.028430,-0.078144
14.751115,-0.004411,-0.002750,-0.092960
14.761125,-0.001289,-0.028375,-0.096277
14.771165,-0.002365,-0.035878,-0.089906
14.781205,0.013632,-0.015497,-0.119676
14.791215,0.015772,-0.020915,-0.104740
14.801255,0.011514,-0.018765,-0.104742
14.811298,0.008263,-0.031509,-0.117630
14.821338,0.008257,-0.039030,-0.108051
14.831348,0.003925,-0.048496,-0.135882
14.841388,-0.001239,0.004862,-0.123893
14.851429,0.035888,-0.049642,-0.141140
14.871479,0.001824,-0.028117,-0.152882
14.881488,0.012509,-0.019619,-0.150676
14.891529,0.002812,-0.056960,-0.151948
14.901538,0.008182,-0.034485,-0.165714
14.911579,0.007135,-0.028079,-0.164618
14.921619,0.005929,-0.078258,-0.166995
14.941669,0.001772,-0.031185,-0.181739
14.951679,-0.004693,-0.057872,-0.179747
14.961719,0.014554,-0.031201,-0.187045
14.971729,0.003867,-0.049387,-0.173274
14.981769,0.004935,-0.039703,-0.189248
14.991809,0.024119,-0.038687,-0.191327
15.001819,0.007068,-0.039715,-0.188174
15.011859,0.016625,-0.047176,-0.197797
15.021869,0.009275,-0.009800,-0.192299
15.031910,0.023006,-0.055771,-0.191410
15.041919,0.031578,-0.034399,-0.199831
15.051960,0.032664,-0.031234,-0.192336
15.061969,0.042274,-0.011931,-0.215719
15.082050,-0.002567,-0.048166,-0.201059
15.082050,-0.002567,-0.048166,-0.201059
15.092060,0.028353,-0.023527,-0.238245
15.102100,0.048725,0.006182,-0.211342
15.112110,0.009144,-0.042779,-0.219161
15.122150,0.015538,-0.033102,-0.237257
15.132160,0.026323,0.009550,-0.230616
15.152240,0.011331,-0.008491,-0.244630
15.162250,0.025184,-0.010682,-0.242465
15.172290,0.020848,-0.030903,-0.254323
15.182300,0.015525,-0.025521,-0.259654
15.192340,0.025140,-0.012696,-0.268112
15.202350,0.020796,-0.039355,-0.273591
15.222431,0.022909,-0.038228,-0.287467
15.232441,0.004790,-0.036013,-0.291779
15.242481,0.001664,-0.009300,-0.292730
15.252491,0.023986,-0.023185,-0.307689
15.262531,0.013269,-0.045587,-0.305688
15.272541,0.028217,-0.015556,-0.342892
15.292621,0.009071,-0.009152,-0.329028
15.302631,0.012150,-0.047567,-0.337747
15.312671,0.011137,-0.024034,-0.345116
15.322681,0.019624,-0.031476,-0.357946
15.332721,0.023879,-0.030387,-0.365407
15.342731,0.019605,-0.032494,-0.368633
15.362781,0.021696,-0.035603,-0.390006
15.372821,0.011045,-0.037745,-0.381500
15.382862,0.026966,-0.044053,-0.413532
15.392871,0.012047,-0.050472,-0.400786
15.402912,0.012074,-0.036554,-0.408197
15.412921,0.018424,-0.050438,-0.412518
15.422962,0.015248,-0.040801,-0.415686
15.432972,0.059995,-0.024735,-0.456078
15.443012,0.015190,-0.037384,-0.460535
15.453052,0.104643,-0.037442,-0.509426
15.463062,0.030172,-0.026855,-0.439079
15.473102,0.050255,-0.047935,-0.511762
15.483112,0.075910,-0.056875,-0.445504
15.503162,0.091853,-0.048171,-0.490284
15.513202,0.061046,-0.030078,-0.456101
15.523243,0.095014,-0.082537,-0.451982
15.533252,0.083359,-0.047167,-0.471075
15.543293,0.080210,-0.024689,-0.479523
15.553302,0.100471,-0.045258,-0.434699
15.573352,0.094015,-0.065508,-0.439086
15.583393,0.108996,-0.031276,-0.461315
15.593433,0.130302,-0.029159,-0.471928
15.603443,0.103636,-0.055938,-0.436877
15.613483,0.128211,-0.024972,-0.452686
15.623493,0.107957,-0.031359,-0.443159
15.643543,0.137755,-0.046397,-0.445284
15.653583,0.085587,-0.030244,-0.437874
15.663593,0.145262,-0.036870,-0.432399
15.673633,0.131451,-0.017577,-0.437687
15.683673,0.117494,-0.053837,-0.438966
15.693683,0.103703,-0.036761,-0.427173
15.713733,0.081397,-0.009995,-0.426039
15.713733,0.081397,-0.009995,-0.426039
15.733783,0.103713,-0.034635,-0.425026
15.743824,0.102648,-0.031402,-0.430355
15.753864,0.128238,-0.023980,-0.436658
15.763874,0.106968,-0.024057,-0.405739
15.783924,0.125036,-0.033651,-0.421758
15.793964,0.104779,-0.036794,-0.420761
15.803998,0.134645,-0.029426,-0.418507
15.814038,0.116562,-0.018708,-0.414233
15.824079,0.121792,-0.045343,-0.431436
15.834089,0.079196,-0.046394,-0.405922
15.854139,0.103676,-0.056064,-0.410173
15.864179,0.078201,-0.025072,-0.397278
15.864179,0.078201,-0.025072,-0.397278
15.874188,0.137823,-0.028298,-0.433448
15.894239,0.110048,-0.048473,-0.438961
15.894239,0.110048,-0.048473,-0.438961
15.904279,0.141063,-0.032752,-0.397140
15.934370,0.092072,-0.020855,-0.395083
15.934370,0.092072,-0.020855,-0.395083
15.944379,0.107791,-0.108391,-0.413613
15.954419,0.081302,-0.046320,-0.423007
15.964430,0.129324,-0.035897,-0.401461
15.974470,0.119649,-0.062534,-0.408023
16.004560,0.155926,-0.032618,-0.435554
16.014569,0.070539,-0.099813,-0.395516
16.014569,0.070539,-0.099813,-0.395516
16.024609,0.127125,-0.047526,-0.425022
16.034620,0.137732,-0.062481,-0.431473
16.044660,0.053617,-0.053852,-0.392141
16.064710,0.133489,-0.065763,-0.412273
16.064710,0.133489,-0.065763,-0.412273
16.074751,0.035532,-0.030202,-0.412375
16.084759,0.142011,-0.059312,-0.427173
16.094800,0.091955,-0.052802,-0.414462
16.104810,0.048238,-0.057985,-0.417812
16.114851,0.130379,-0.031558,-0.416392
16.134901,0.057867,-0.047362,-0.412394
16.144941,0.096233,-0.036706,-0.433602
16.154951,0.056806,-0.039832,-0.423044
16.164990,0.069676,-0.016430,-0.412216
16.175001,0.110169,-0.007922,-0.432359
16.185041,0.037703,-0.027102,-0.392058
16.215132,0.081423,-0.005769,-0.416405
16.215132,0.081423,-0.005769,-0.416405
16.225140,0.120739,-0.043224,-0.427156
16.235181,0.019596,-0.016308,-0.403808
16.245191,0.112316,-0.009053,-0.420608
16.255232,0.097343,-0.033617,-0.410084
16.275282,0.109066,-0.034728,-0.408989
16.285322,0.115450,-0.040104,-0.405792
16.295332,0.082526,-0.002659,-0.397160
16.305371,0.101592,-0.045434,-0.398378
16.315382,0.102716,-0.025157,-0.396142
16.325422,0.085689,-0.016563,-0.395080
16.345472,0.090007,-0.002749,-0.383253
16.355512,0.117636,-0.031663,-0.385450
16.365522,0.108037,-0.042382,-0.370572
16.375561,0.097449,-0.011332,-0.380068
16.385572,0.109113,-0.031646,-0.383337
16.395612,0.105937,-0.036013,-0.360934
16.415662,0.097461,-0.021065,-0.354477
16.425703,0.097427,-0.032807,-0.355601
16.435713,0.120874,-0.029649,-0.361931
16.445752,0.106034,-0.002928,-0.356504
16.455763,0.087845,-0.028499,-0.356675
16.465803,0.107008,-0.032803,-0.363052
16.485852,0.078209,-0.038024,-0.368497
16.495863,0.066528,-0.027347,-0.359933
16.505903,0.072952,-0.018845,-0.355603
16.515942,0.086740,-0.042374,-0.357812
16.525953,0.048421,-0.025172,-0.355700
16.535993,0.038888,-0.004861,-0.353494
16.556042,0.023862,-0.041107,-0.356912
16.556042,0.023862,-0.041107,-0.356912
16.566053,0.038878,-0.002674,-0.364166
16.576093,0.065566,0.007873,-0.354428
16.586133,0.059013,-0.047618,-0.358982
16.596143,0.034634,-0.001643,-0.353491
16.606184,0.095289,-0.031702,-0.362011
16.636244,0.102841,-0.000777,-0.357571
16.636244,0.102841,-0.000777,-0.357571
16.646284,0.068630,-0.045574,-0.346127
16.656323,0.059165,0.002529,-0.349130
16.666334,0.088938,-0.022126,-0.350233
16.676374,0.068650,-0.037021,-0.348223
16.706434,0.047325,-0.042306,-0.345102
16.706434,0.047325,-0.042306,-0.345102
16.716474,0.072926,-0.027378,-0.357779
16.726483,0.067671,-0.010360,-0.339554
16.736524,0.082557,-0.017838,-0.349162
16.746565,0.092077,-0.048880,-0.340737
16.766614,0.129463,-0.016948,-0.343687
16.766614,0.129463,-0.016948,-0.343687
16.776624,0.111325,-0.040525,-0.313939
16.786665,0.117684,-0.045820,-0.327833
16.796673,0.123097,-0.023481,-0.312757
16.806751,0.120929,-0.037363,-0.311761
16.816791,0.139033,-0.037376,-0.321325
16.836841,0.117737,-0.040601,-0.302171
16.836841,0.117737,-0.040601,-0.302171
16.846851,0.146535,-0.031068,-0.305251
16.856891,0.123101,-0.035345,-0.288245
16.866901,0.118848,-0.027820,-0.295698
16.876941,0.115672,-0.024646,-0.287146
16.886981,0.109231,-0.043869,-0.282982
16.917041,0.115673,-0.035422,-0.266901
16.917041,0.115673,-0.035422,-0.266901
16.927082,0.084839,0.001069,-0.283905
16.937091,0.083690,-0.037444,-0.269136
16.947132,0.084863,-0.001163,-0.263620
16.957172,0.075179,-0.035311,-0.262740
16.987232,0.069890,-0.035420,-0.236050
16.987232,0.069890,-0.035420,-0.236050
16.997272,0.046483,-0.006388,-0.261614
17.007282,0.090200,-0.007669,-0.246544
17.017322,0.075234,-0.026868,-0.241335
17.027332,0.032663,-0.002147,-0.245609
17.047412,0.069910,-0.024710,-0.242408
17.047412,0.069910,-0.024710,-0.242408
17.057422,0.021968,-0.018152,-0.241441
17.067462,0.057176,-0.007612,-0.235953
17.077472,0.062482,-0.015095,-0.238110
17.087512,0.017797,0.009578,-0.230640
17.097522,0.059325,-0.004441,-0.230591
17.117603,0.017811,0.010610,-0.223157
17.127613,0.061500,0.013728,-0.234772
17.137653,0.079579,-0.002365,-0.231594
17.147663,0.033779,0.002000,-0.219949
17.157703,0.058229,-0.010804,-0.239170
17.167713,0.046525,-0.009754,-0.227447
17.187793,0.038025,0.002041,-0.231688
17.187793,0.038025,0.002041,-0.231688
17.197803,0.035838,-0.015013,-0.237115
17.207843,0.029554,0.022360,-0.231615
17.217853,0.033698,-0.016054,-0.241399
17.227893,0.022013,-0.008601,-0.228578
17.237903,0.030558,0.008549,-0.247701
17.257953,0.035864,-0.002168,-0.243464
17.267993,0.020940,-0.004265,-0.241379
17.278034,0.020907,-0.017086,-0.240371
17.288044,0.031608,0.002133,-0.246660
17.298084,0.030541,-0.006478,-0.231749
17.308094,0.035825,-0.017124,-0.242466
17.338184,0.066735,-0.019385,-0.237051
17.338184,0.066735,-0.019385,-0.237051
17.348224,0.031563,-0.022500,-0.231822
17.358234,0.029467,-0.012912,-0.225373
17.368274,0.065698,-0.008703,-0.237003
17.378284,0.033758,-0.003320,-0.224247
17.408374,0.037953,-0.024662,-0.230746
17.408374,0.037953,-0.024662,-0.230746
17.418415,0.035839,-0.023633,-0.221133
17.428424,0.056102,-0.017276,-0.224251
17.438465,0.041133,-0.038621,-0.216916
17.448474,0.044443,-0.001284,-0.210321
17.468524,0.045399,-0.041874,-0.209442
17.478565,0.033770,-0.006589,-0.210376
17.488605,0.090123,-0.051590,-0.217910
17.498615,0.056056,-0.044060,-0.206219
17.508655,0.030562,-0.008700,-0.213599
17.518665,0.079531,-0.033452,-0.207172
17.538715,0.033691,-0.034345,-0.212644
17.548755,0.062516,-0.019513,-0.207153
17.558765,0.080537,-0.051580,-0.213664
17.568805,0.032619,-0.036478,-0.212657
17.578846,0.045447,-0.022636,-0.212556
17.588855,0.064558,-0.048319,-0.214761
17.608905,0.041191,-0.019414,-0.213621
17.618946,0.059235,-0.042937,-0.220091
17.628955,0.029399,-0.040704,-0.220163
17.638996,0.027320,-0.019318,-0.224341
17.649036,0.056067,-0.032247,-0.220050
17.659046,0.049658,-0.038644,-0.217961
17.679096,0.042186,-0.041813,-0.220133
17.679096,0.042186,-0.041813,-0.220133
17.689136,0.048648,-0.019428,-0.215737
17.699146,0.067850,-0.013083,-0.215653
17.709186,0.060331,-0.034417,-0.215775
17.719226,0.048636,-0.028007,-0.208300
17.729236,0.080604,-0.030246,-0.208222
17.749286,0.067834,-0.027036,-0.200765
17.759326,0.079549,-0.028122,-0.205010
17.769336,0.089112,-0.038833,-0.205034
17.779377,0.063614,-0.013155,-0.197506
17.789417,0.082747,-0.029211,-0.202870
17.799427,0.068894,-0.035639,-0.189052
17.819486,0.061464,-0.027092,-0.184759
17.829526,0.078454,-0.046339,-0.191213
17.839536,0.046593,-0.003503,-0.194303
17.849576,0.038029,-0.027056,-0.176278
17.859586,0.065694,-0.031311,-0.198654
17.869626,0.043411,-0.017548,-0.158059
17.889676,0.026305,-0.028096,-0.174179
17.899716,0.031670,-0.008835,-0.185823
17.909726,0.041236,-0.029253,-0.165597
17.919766,0.008250,-0.019620,-0.147483
17.929776,0.042276,-0.025941,-0.189080
17.939816,0.033888,-0.004808,-0.135592
17.959866,0.018858,-0.031346,-0.159260
17.959866,0.018858,-0.031346,-0.159260
17.969907,0.006209,0.009186,-0.139875
17.979917,0.064725,-0.019763,-0.155874
17.989957,0.001880,-0.014290,-0.141067
17.999967,0.009343,-0.007861,-0.150629
18.010007,0.004045,-0.009018,-0.128217
18.030057,0.001913,-0.012240,-0.122897
18.030057,0.001913,-0.012240,-0.122897
18.040097,0.021079,-0.018710,-0.122875
18.050107,0.006222,0.013452,-0.138787
18.060147,0.008351,-0.012398,-0.094038
18.070157,0.058419,-0.000636,-0.131232
18.080197,0.010580,0.017447,-0.083209
18.100247,0.045680,0.002478,-0.103479
18.100247,0.045680,0.002478,-0.103479
18.110288,0.031957,0.030112,-0.065998
18.120297,0.062605,-0.040259,-0.111112
18.130338,0.025562,0.029055,-0.063885
18.140347,0.062793,0.013006,-0.083086
18.150388,0.045670,-0.014725,-0.078991
18.170438,0.050026,0.017283,-0.075623
18.180478,0.044672,0.003377,-0.067158
18.190488,0.012654,-0.012538,-0.067322
18.200528,0.031949,0.029059,-0.069208
18.210538,0.042533,0.000175,-0.066111
18.220578,0.019024,-0.023253,-0.064150
18.230588,0.008477,0.020597,-0.070381
18.240628,0.009479,-0.001828,-0.071553
18.250668,-0.001216,-0.017833,-0.067385
18.260678,-0.016078,0.006804,-0.072651
18.270719,-0.006606,-0.035935,-0.074963
18.280728,-0.011828,0.002523,-0.073727
18.290769,-0.008719,-0.032754,-0.068545
18.310819,0.001937,-0.026321,-0.081303
18.320859,-0.000187,-0.042494,-0.047203
18.330869,0.013662,-0.024208,-0.084466
18.340909,0.016797,-0.063878,-0.053666
18.350919,-0.010836,-0.042490,-0.040823
18.360959,0.041324,-0.047843,-0.073819
18.381009,0.038187,-0.051254,-0.027910
18.391019,0.059461,-0.053347,-0.051362
18.401059,0.052001,-0.053323,-0.051383
18.411099,0.033925,-0.052323,-0.024723
18.421109,0.059400,-0.082237,-0.039749
18.431149,0.030616,-0.085352,-0.038775
18.451199,0.056204,-0.074690,-0.052540
18.461209,-0.006580,-0.072644,0.009252
18.471250,0.015880,-0.019103,-0.036366
18.481290,0.059464,-0.063050,-0.032180
18.491300,0.027529,-0.065223,-0.002369
18.501340,0.023348,-0.023459,-0.023547
18.521390,0.009502,-0.035293,0.004132
18.531400,0.021163,-0.044826,-0.020450
18.541440,0.016933,-0.040611,-0.005486
18.551480,0.016008,0.005267,0.004342
18.561490,0.047903,-0.016129,-0.009558
18.571530,0.028715,-0.014979,-0.013878
18.581540,0.058719,-0.005894,0.077046
18.591580,-0.038293,0.021428,0.011746
18.601590,0.029954,0.085727,-0.081764
18.611630,-0.010530,0.030868,0.028959
18.621671,-0.140558,0.039910,0.012619
18.631680,-0.059662,0.081989,-0.133304
18.641721,-0.163676,0.096034,0.129256
18.661771,-0.101906,0.174617,-0.044321
18.671781,-0.130740,0.143655,-0.026387
18.681821,-0.112741,0.109503,-0.043590
18.691831,-0.114708,0.177928,-0.058227
18.701871,-0.119985,0.169164,-0.008077
18.711911,-0.053938,0.169051,-0.029259
18.731961,-0.047421,0.197727,-0.000264
18.741971,-0.013263,0.217917,-0.002210
18.752011,0.028217,0.168506,0.029717
18.762021,0.036922,0.239007,0.020461
18.772061,0.043508,0.306245,0.025070
18.782102,0.047545,0.214309,0.041737
18.802152,0.025229,0.238949,0.040724
18.812180,0.024247,0.267771,0.044062
18.822221,0.047523,0.206838,0.040634
18.832230,0.030594,0.248513,0.047193
18.842271,0.019886,0.228236,0.051341
18.852311,0.002722,0.188789,0.048970
18.872361,0.009179,0.206882,0.057619
18.882371,0.012312,0.189841,0.045797
18.892411,0.004904,0.204780,0.053325
18.902421,0.011120,0.147157,0.039183
18.912461,0.015485,0.178058,0.051091
18.922471,0.029266,0.151319,0.049935
18.942551,0.018625,0.155611,0.053130
18.952561,0.046265,0.121271,0.069067
18.962602,0.047177,0.080823,0.040037
18.972611,0.056888,0.121348,0.045596
18.982652,0.029137,0.093560,0.068889
18.992661,0.003276,0.004049,0.044893
19.012742,-0.034034,-0.005502,0.057563
19.022752,-0.033037,-0.019292,0.037205
19.032792,-0.035168,-0.019286,0.037199
19.042802,-0.029850,-0.033272,0.055307
19.052842,-0.065028,-0.026674,0.039218
19.062852,-0.066364,-0.129227,0.046207
19.082932,-0.088696,-0.109922,0.044100
19.092942,-0.062001,-0.103702,0.065567
19.102982,-0.049284,-0.122905,0.052693
19.112992,-0.076024,-0.162373,0.060978
19.123032,-0.089777,-0.119565,0.051529
19.133042,-0.068514,-0.156091,0.082393
19.143082,-0.088926,-0.210449,0.073534
19.153123,-0.095182,-0.147314,0.051382
19.163133,-0.089730,-0.129409,0.100620
19.173173,-0.030371,-0.225519,0.058669
19.183183,-0.093022,-0.170031,0.111101
19.193223,-0.052539,-0.155029,0.072828
19.203233,-0.057859,-0.169041,0.103725
19.223283,-0.069613,-0.176449,0.097249
19.233323,-0.051421,-0.153043,0.103819
19.243363,-0.052491,-0.153025,0.100611
19.253373,-0.049227,-0.132780,0.108194
19.263413,-0.031125,-0.137095,0.105019
19.273423,-0.046042,-0.140291,0.113508
19.293473,-0.011827,-0.104123,0.120183
19.303513,-0.024591,-0.098777,0.127650
19.313554,-0.021326,-0.077459,0.134170
19.323563,0.009547,-0.090375,0.134194
19.333604,-0.005352,-0.089319,0.146976
19.343613,0.011778,-0.056223,0.137566
19.353654,0.024624,-0.041364,0.148354
19.363664,0.008652,-0.034895,0.146204
19.373704,0.010803,-0.029577,0.149440
19.383744,0.026814,-0.026476,0.160181
19.383744,0.026814,-0.026476,0.160181
19.403794,0.023723,0.010902,0.162486
19.403794,0.023723,0.010902,0.162486
19.423844,0.018367,-0.002999,0.169883
19.443894,0.017318,0.004490,0.167779
19.443894,0.017318,0.004490,0.167779
19.453904,-0.007118,0.030179,0.172105
19.473985,0.000374,0.031132,0.191359
19.483994,-0.012431,0.036609,0.171053
19.483994,-0.012431,0.036609,0.171053
19.494035,-0.043352,0.028131,0.178405
19.524094,-0.049719,0.040992,0.173107
19.534135,-0.058267,0.024930,0.187962
19.534135,-0.058267,0.024930,0.187962
19.544175,-0.047627,0.026029,0.174110
19.554185,-0.048683,0.023846,0.184779
19.564225,-0.065733,0.024970,0.184737
19.584275,-0.051913,0.002417,0.201760
19.584275,-0.051913,0.002417,0.201760
19.604325,-0.059377,0.003529,0.197472
19.614365,-0.047705,-0.018965,0.203807
19.624375,-0.034945,-0.022145,0.189941
19.624375,-0.034945,-0.022145,0.189941
19.634415,-0.038046,-0.000897,0.215670
19.664475,-0.056221,-0.023280,0.218718
19.664475,-0.056221,-0.023280,0.218718
19.674516,-0.027545,-0.051064,0.202643
19.684556,-0.038169,-0.046828,0.217589
19.694566,-0.039262,-0.056431,0.216472
19.704606,-0.033919,-0.051109,0.216512
19.734666,-0.035082,-0.089576,0.221668
19.734666,-0.035082,-0.089576,0.221668
19.744706,-0.049907,-0.057515,0.227119
19.754716,-0.056260,-0.045778,0.233567
19.764756,-0.039298,-0.072476,0.221737
19.774796,-0.063830,-0.083111,0.229096
19.794846,-0.040312,-0.057557,0.229282
19.804911,-0.057358,-0.060755,0.239902
19.814951,-0.035033,-0.069265,0.217491
19.824961,-0.047738,-0.055487,0.248499
19.835001,-0.066939,-0.059682,0.245222
19.845042,-0.029639,-0.045788,0.217617
19.875101,-0.057372,-0.061788,0.232420
19.875101,-0.057372,-0.061788,0.232420
19.885142,-0.074379,-0.044641,0.231386
19.895152,-0.045677,-0.067120,0.222813
19.905191,-0.057346,-0.051099,0.230334
19.915232,-0.050976,-0.053195,0.217523
19.935281,-0.058404,-0.046808,0.227147
19.945292,-0.041414,-0.067134,0.222825
19.955332,-0.038185,-0.057548,0.226083
19.965342,-0.037046,-0.030854,0.226213
19.975381,-0.040312,-0.057557,0.229282
19.985423,-0.039263,-0.060738,0.223929
20.005472,-0.029631,-0.045814,0.222958
20.015482,-0.043531,-0.065017,0.228170
20.025523,-0.038150,-0.044733,0.226144
20.035533,-0.045628,-0.056502,0.235682
20.045572,-0.048855,-0.061785,0.226034
20.055583,-0.056227,-0.030801,0.228297
20.075662,-0.064858,-0.065990,0.222765
20.075662,-0.064858,-0.065990,0.222765
20.085672,-0.073337,-0.052110,0.229217
20.095713,-0.075427,-0.035001,0.226087
20.105723,-0.067990,-0.042490,0.223936
20.115762,-0.071230,-0.057426,0.222788
20.125773,-0.079694,-0.037128,0.227134
20.145853,-0.060534,-0.048962,0.232472
20.155862,-0.054106,-0.036163,0.231482
20.165904,-0.043491,-0.047909,0.223978
20.175913,-0.049800,-0.022309,0.234764
20.185953,-0.033903,-0.050082,0.225062
20.195963,-0.050929,-0.043649,0.231455
20.216043,-0.042390,-0.034020,0.221910
20.226053,-0.056180,-0.010485,0.223052
20.236094,-0.053090,-0.051087,0.225005
20.246104,-0.058339,-0.022241,0.226195
20.256143,-0.041327,-0.036169,0.224039
20.266154,-0.038075,-0.020196,0.231602
20.286203,-0.023194,-0.029810,0.221983
20.296243,-0.053040,-0.035088,0.229353
20.306284,-0.031774,-0.052234,0.227195
20.316294,-0.042342,-0.022323,0.232648
20.326334,-0.037018,-0.021247,0.227327
20.336344,-0.031685,-0.023431,0.233740
20.356393,-0.044471,-0.021248,0.232647
20.356393,-0.044471,-0.021248,0.232647
20.366434,-0.028522,-0.034105,0.230494
20.376475,-0.050842,-0.012684,0.232670
20.386485,-0.042322,-0.011614,0.226289
20.396524,-0.054109,-0.041538,0.238934
20.406535,-0.057337,-0.042510,0.220761
20.436624,-0.056236,-0.034005,0.228281
20.436624,-0.056236,-0.034005,0.228281
20.446665,-0.074296,-0.017973,0.237921
20.456675,-0.072155,-0.012625,0.234748
20.466714,-0.050832,-0.009485,0.233753
20.476725,-0.064743,-0.034038,0.241076
20.496775,-0.047618,-0.005239,0.236987
20.496775,-0.047618,-0.005239,0.236987
20.506814,-0.057262,-0.028743,0.245395
20.516856,-0.048725,-0.023416,0.242239
20.526866,-0.057194,-0.005259,0.247643
20.536905,-0.043429,-0.035180,0.242198
20.546915,-0.032754,-0.032036,0.247583
20.577005,-0.041278,-0.040633,0.264611
20.577005,-0.041278,-0.040633,0.264611
20.587016,-0.015635,-0.009681,0.250941
20.597056,-0.013458,-0.000137,0.263811
20.607095,-0.015669,-0.027886,0.261537
20.617105,-0.002929,-0.039619,0.249766
20.637156,-0.009278,-0.023584,0.250893
20.647195,-0.026277,-0.010775,0.263725
20.657206,-0.034862,-0.032105,0.263600
20.667246,-0.018822,-0.006471,0.252016
20.677286,-0.035918,-0.031054,0.267875
20.687296,-0.025274,-0.025658,0.248702
20.707346,-0.032810,-0.055556,0.252813
20.717386,-0.049774,-0.027775,0.261443
20.727397,-0.062526,-0.018158,0.268931
20.737437,-0.043473,-0.049043,0.237859
20.747476,-0.093412,-0.043981,0.330680
20.757486,-0.079550,-0.025735,0.301963
20.777537,-0.128516,-0.032231,0.354139
20.787576,-0.081740,-0.039545,0.288005
20.797587,-0.091241,-0.003179,0.282809
20.807649,-0.109384,-0.045053,0.342381
20.817660,-0.080615,-0.026809,0.304091
20.827700,-0.124312,-0.019131,0.291188
20.847750,-0.091169,-0.004485,0.333009
20.847750,-0.091169,-0.004485,0.333009
20.857791,-0.120025,-0.023528,0.314680
20.867800,-0.108389,-0.030829,0.269813
20.877840,-0.081662,0.005450,0.258308
20.887850,-0.083870,-0.015846,0.246451
20.897891,-0.096617,-0.008400,0.261406
20.927981,-0.092371,-0.013744,0.259256
20.927981,-0.092371,-0.013744,0.259256
20.937991,-0.092262,0.017150,0.275425
20.948030,-0.087064,-0.024465,0.264561
20.958041,-0.106218,-0.024499,0.284804
20.968081,-0.074183,0.006443,0.269015
20.988130,-0.087010,-0.020325,0.292354
20.988130,-0.087010,-0.020325,0.292354
20.998171,-0.053961,-0.007536,0.275414
21.008181,-0.059331,-0.030011,0.289180
21.018221,-0.063577,-0.022512,0.287067
21.028231,-0.049660,0.000948,0.285080
21.038272,-0.063584,-0.030028,0.295577
21.068362,-0.063580,-0.026809,0.292388
21.068362,-0.063580,-0.026809,0.292388
21.078372,-0.061475,-0.031042,0.282760
21.088411,-0.074217,-0.009607,0.275348
21.098422,-0.073147,-0.011776,0.281750
21.108462,-0.071034,-0.020342,0.284920
21.138552,-0.092378,-0.023416,0.272028
21.138552,-0.092378,-0.023416,0.272028
21.148562,-0.107372,-0.047914,0.268666
21.158601,-0.098809,-0.035132,0.269819
21.168612,-0.111611,-0.040435,0.270826
21.178652,-0.095620,-0.038346,0.269812
21.198701,-0.104249,-0.075696,0.269612
21.198701,-0.104249,-0.075696,0.269612
21.208743,-0.091414,-0.059724,0.270791
21.218753,-0.046639,-0.059904,0.278391
21.228792,-0.071227,-0.086518,0.277129
21.238803,-0.082863,-0.056598,0.281512
21.248843,-0.075457,-0.072606,0.273979
21.278933,-0.101071,-0.081031,0.266391
21.278933,-0.101071,-0.081031,0.266391
21.288943,-0.093691,-0.105577,0.257749
21.298982,-0.104160,-0.046892,0.276158
21.308993,-0.091483,-0.084281,0.269606
21.319033,-0.103225,-0.098186,0.282327
21.349093,-0.098956,-0.099299,0.288743
21.359133,-0.082838,-0.051289,0.287946
21.369173,-0.061574,-0.070586,0.288982
21.379183,-0.082951,-0.098328,0.298405
21.389224,-0.082829,-0.051319,0.294355
21.409273,-0.086102,-0.087694,0.310197
21.419284,-0.077488,-0.054606,0.308241
21.429324,-0.068961,-0.050327,0.300808
21.439363,-0.079651,-0.060961,0.298591
21.449374,-0.098816,-0.058808,0.308162
21.459414,-0.085005,-0.072716,0.303862
21.489474,-0.121142,-0.030904,0.294346
21.489474,-0.121142,-0.030904,0.294346
21.499514,-0.099961,-0.084405,0.301629
21.509554,-0.087029,-0.034269,0.305106
21.519564,-0.085935,-0.012818,0.284915
21.529605,-0.085935,-0.018203,0.294503
21.539614,-0.075354,-0.042770,0.288007
21.549654,-0.082752,-0.032172,0.310469
21.559664,-0.063625,-0.051442,0.307226
21.569705,-0.094402,-0.001129,0.303106
21.579744,-0.076263,0.004132,0.307454
21.589754,-0.051881,-0.044005,0.307294
21.599795,-0.075317,-0.040735,0.309381
21.619844,-0.072070,-0.021512,0.307345
21.619844,-0.072070,-0.021512,0.307345
21.629855,-0.067833,-0.025753,0.297722
21.639895,-0.073089,0.004197,0.291440
21.649904,-0.079578,-0.033185,0.296586
21.659944,-0.072026,-0.003337,0.303158
21.669985,-0.083704,0.011636,0.306401
21.690034,-0.091224,-0.005386,0.297754
21.700045,-0.092239,0.018153,0.289317
21.710086,-0.088092,-0.021349,0.283800
21.720094,-0.109383,-0.017049,0.292307
21.730135,-0.095492,0.001107,0.282818
21.740176,-0.098663,0.007494,0.289249
21.760225,-0.102978,-0.007408,0.281689
21.770236,-0.101878,0.004331,0.282815
21.780276,-0.088028,0.006457,0.275386
21.790285,-0.089115,-0.006400,0.284936
21.800325,-0.083767,0.001063,0.283918
21.810373,-0.074178,0.005349,0.274351
21.820383,-0.065723,-0.021381,0.275316
21.830423,-0.075219,0.011740,0.278651
21.840433,-0.075278,-0.009618,0.278550
21.850473,-0.078435,0.006421,0.276481
21.860483,-0.077355,0.013913,0.272246
21.870523,-0.078478,-0.012832,0.282799
21.880564,-0.076354,-0.006350,0.265744
21.890573,-0.107239,-0.003092,0.275288
21.900614,-0.063531,0.001043,0.274360
21.910624,-0.066749,-0.005344,0.272185
21.920664,-0.075374,-0.040553,0.270926
21.930674,-0.097615,0.008624,0.275370
21.940714,-0.068866,0.003232,0.266878
21.950724,-0.062547,-0.024555,0.266764
21.960764,-0.083851,-0.019136,0.264595
21.970804,-0.083805,-0.002049,0.264676
21.980814,-0.069987,-0.018133,0.268911
21.990854,-0.088117,-0.023424,0.270972
22.000864,-0.063558,-0.002105,0.262595
22.010904,-0.063594,-0.018149,0.267860
22.020914,-0.063612,-0.020245,0.259304
22.030954,-0.070007,-0.019146,0.257155
22.040995,-0.078521,-0.012695,0.253958
22.051004,-0.073221,-0.022314,0.251790
22.061045,-0.088114,-0.014815,0.257126
22.071054,-0.079631,-0.022248,0.242159
22.081095,-0.102033,-0.040421,0.261239
22.091104,-0.076456,-0.027572,0.236802
22.101145,-0.089253,-0.036125,0.247408
22.111185,-0.109419,-0.013703,0.262413
22.121195,-0.053027,-0.024359,0.218722
22.131235,-0.108473,-0.057492,0.262209
22.141245,-0.130851,-0.040196,0.233387
22.151285,-0.081778,-0.028653,0.243191
22.161295,-0.089247,-0.059842,0.294297
22.181345,-0.081823,-0.048979,0.250572
22.191385,-0.058453,-0.064968,0.228129
22.201426,-0.066903,-0.047945,0.247414
22.211435,-0.071157,-0.041498,0.242091
22.221476,-0.073339,-0.057490,0.237737
22.231485,-0.065853,-0.050054,0.240997
22.261576,-0.054092,-0.031896,0.232570
22.261576,-0.054092,-0.031896,0.232570
22.271616,-0.060508,-0.043658,0.239974
22.281626,-0.055219,-0.058632,0.240986
22.291666,-0.049861,-0.043657,0.232526
22.301676,-0.055098,-0.008383,0.229474
22.321726,-0.074344,-0.030748,0.229315
22.331766,-0.073306,-0.040357,0.228204
22.341806,-0.054156,-0.057547,0.236721
22.351816,-0.040238,-0.028707,0.226214
22.361856,-0.069018,-0.033989,0.233587
22.371866,-0.053054,-0.036121,0.221871
22.401957,-0.045597,-0.035057,0.217624
22.411997,-0.047712,-0.036179,0.230431
22.422007,-0.056283,-0.045707,0.218612
22.432047,-0.071148,-0.030753,0.228256
22.442057,-0.050892,-0.023298,0.218733
22.452097,-0.044574,-0.055392,0.226076
22.462107,-0.059389,-0.019054,0.230480
22.472147,-0.051968,-0.022186,0.210189
22.482157,-0.061592,-0.048984,0.237810
22.492197,-0.067879,-0.006216,0.231585
22.502237,-0.046659,-0.029679,0.210169
22.512247,-0.059403,-0.029784,0.241111
22.532297,-0.071123,-0.023293,0.231496
22.542337,-0.088127,-0.009390,0.238992
22.552347,-0.046607,-0.009378,0.208128
22.562387,-0.072133,-0.012696,0.249703
22.572428,-0.058322,-0.010443,0.215569
22.582438,-0.069984,0.007709,0.224168
22.602488,-0.058343,-0.018997,0.217664
22.612528,-0.050823,-0.006282,0.233769
22.622538,-0.049770,-0.005167,0.223095
22.632578,-0.062576,-0.011538,0.224097
22.642618,-0.071080,-0.015888,0.246486
22.652628,-0.043435,-0.021156,0.212354
22.662668,-0.058314,-0.020166,0.239023
22.672678,-0.065691,0.016219,0.228493
22.682718,-0.050895,-0.031907,0.232579
22.692728,-0.058346,-0.039454,0.252819
22.702768,-0.029561,-0.019105,0.220948
22.712778,-0.036944,-0.005324,0.247698
22.722818,-0.049766,-0.013796,0.241213
22.732859,-0.043422,-0.023352,0.225163
22.742868,-0.049806,-0.028752,0.242211
22.752909,-0.062553,-0.011608,0.239052
22.762918,-0.047646,-0.013767,0.233742
22.772959,-0.064747,-0.038335,0.246397
22.782969,-0.057268,-0.024416,0.233665
22.793009,-0.064673,-0.009486,0.243329
22.803049,-0.063624,-0.016975,0.245433
22.813099,-0.063674,-0.028667,0.233627
22.823139,-0.077444,-0.013812,0.263569
22.833149,-0.056219,-0.026519,0.226180
22.843189,-0.074293,-0.030909,0.263497
22.853199,-0.075243,0.008582,0.269022
22.863239,-0.055157,-0.037283,0.243224
22.883289,-0.064713,-0.022286,0.240064
22.893330,-0.051875,-0.028942,0.283864
22.903339,-0.074284,-0.021242,0.251793
22.913380,-0.073251,-0.032993,0.251740
22.923389,-0.057227,-0.033161,0.276352
22.933430,-0.048753,-0.039485,0.252845
22.953480,-0.060405,-0.020285,0.265722
22.963520,-0.050889,-0.049161,0.267748
22.973530,-0.059293,-0.012894,0.282852
22.983570,-0.065783,-0.041657,0.272016
22.993580,-0.066810,-0.029926,0.276341
23.003620,-0.065730,-0.031054,0.288089
23.013630,-0.062496,-0.024717,0.300947
23.023670,-0.047609,-0.028966,0.286013
23.033710,-0.074220,-0.030064,0.310503
23.043720,-0.052889,-0.018331,0.298867
23.053760,-0.047583,-0.023662,0.293515
23.063770,-0.060320,-0.021632,0.324468
23.063770,-0.060320,-0.021632,0.324468
23.083820,-0.056090,-0.023695,0.306310
23.103901,-0.066683,-0.017405,0.338357
23.103901,-0.066683,-0.017405,0.338357
23.123951,-0.092270,-0.016218,0.330814
23.133961,-0.066746,-0.026900,0.313743
23.133961,-0.066746,-0.026900,0.313743
23.154011,-0.077358,-0.013007,0.319120
23.174091,-0.069871,-0.000186,0.312793
23.184101,-0.074194,-0.023682,0.315874
23.194141,-0.084814,-0.024847,0.343613
23.204151,-0.066633,0.012598,0.317135
23.204151,-0.066633,0.012598,0.317135
23.224201,-0.082686,-0.010839,0.315911
23.244282,-0.081623,-0.011910,0.315909
23.244282,-0.081623,-0.011910,0.315909
23.264332,-0.081584,-0.000336,0.345901
23.274342,-0.071996,-0.003434,0.323453
23.274342,-0.071996,-0.003434,0.323453
23.284382,-0.071969,0.002944,0.329893
23.294392,-0.089041,-0.008789,0.338336
23.324482,-0.077317,-0.010983,0.342631
23.324482,-0.077317,-0.010983,0.342631
23.334522,-0.075121,-0.004729,0.373645
23.344532,-0.087907,-0.011161,0.387466
23.354572,-0.079381,-0.011188,0.387489
23.364582,-0.080373,-0.008189,0.431297
23.384632,-0.081458,-0.018895,0.437653
23.384632,-0.081458,-0.018895,0.437653
23.394672,-0.093027,0.006505,0.494356
23.404713,-0.075017,-0.045993,0.517659
23.424763,-0.058827,-0.019757,0.604353
23.424763,-0.058827,-0.019757,0.604353
23.434772,-0.028982,-0.018786,0.604440
23.454822,-0.049236,-0.040251,0.640602
23.454822,-0.049236,-0.040251,0.640602
23.464863,-0.055645,-0.047726,0.644821
23.474903,-0.013972,-0.016962,0.660037
23.484913,-0.073731,-0.063929,0.695969
23.494953,-0.029908,-0.048310,0.750643
23.504963,-0.033027,-0.028080,0.765685
23.535053,-0.044657,-0.072505,0.908583
23.535053,-0.044657,-0.072505,0.908583
23.545063,-0.068071,-0.099466,0.979961
23.555103,-0.040247,-0.071906,1.004737
23.565144,-0.001741,-0.057383,1.069005
23.575153,-0.055102,-0.108693,1.115617
23.605244,-0.057002,-0.109420,1.270499
23.605244,-0.057002,-0.109420,1.270499
23.615253,-0.047403,-0.104086,1.265210
23.625294,-0.066409,-0.099200,1.374138
23.635334,-0.098264,-0.128558,1.506369
23.645344,-0.136609,-0.140358,1.543595
23.675434,-0.116220,-0.127937,1.613144
23.685444,-0.147141,-0.120255,1.590662
23.695484,-0.149528,-0.193768,1.555057
23.705524,-0.343028,-0.015827,1.547886
23.715534,-0.161251,-0.137717,1.453810
23.735584,-0.163520,-0.085569,1.268181
23.735584,-0.163520,-0.085569,1.268181
23.745624,-0.194651,-0.151549,1.240009
23.755634,-0.300405,-0.175222,1.124238
23.765675,-0.336564,-0.150577,1.131732
23.775715,-0.180947,-0.119875,1.082101
23.785725,-0.128659,-0.076083,1.045065
23.815831,-0.223911,-0.120840,0.864062
23.815831,-0.223911,-0.120840,0.864062
23.825841,-0.209032,-0.118601,0.832068
23.835881,-0.193084,-0.108834,0.788361
23.845891,-0.150538,-0.083924,0.686048
23.855931,-0.148416,-0.087135,0.686039
23.875981,-0.185825,-0.094216,0.628218
23.875981,-0.185825,-0.094216,0.628218
23.886021,-0.152891,-0.087526,0.546089
23.896031,-0.156115,-0.076660,0.508744
23.906071,-0.138019,-0.068028,0.477856
23.916081,-0.172256,-0.099819,0.448770
23.926121,-0.110180,-0.040519,0.513314
23.946171,-0.208463,-0.091178,0.452983
23.946171,-0.208463,-0.091178,0.452983
23.956212,-0.113415,-0.042543,0.491932
23.966222,-0.088904,-0.039384,0.484537
23.976262,-0.170038,-0.073168,0.457447
23.986272,-0.109124,-0.039414,0.504777
23.996312,-0.144386,-0.051938,0.467233
24.016362,-0.100640,-0.041461,0.480222
24.016362,-0.100640,-0.041461,0.480222
24.026402,-0.135837,-0.053115,0.484342
24.036412,-0.159272,-0.047694,0.483235
24.046452,-0.091000,-0.027640,0.486723
24.056462,-0.135842,-0.058485,0.490726
24.066502,-0.143291,-0.049882,0.483269
24.086552,-0.110264,-0.059641,0.491859
24.096593,-0.120907,-0.058579,0.500381
24.106602,-0.094168,-0.032033,0.514467
24.116643,-0.102771,-0.057615,0.510049
24.126652,-0.109171,-0.050038,0.492976
24.136693,-0.107973,-0.046149,0.573114
24.166783,-0.125036,-0.056834,0.585835
24.166783,-0.125036,-0.056834,0.585835
24.176793,-0.109132,-0.071705,0.558035
24.186833,-0.091015,-0.065296,0.545297
24.196843,-0.098410,-0.056860,0.573090
24.206883,-0.108018,-0.080480,0.606066
24.226933,-0.095215,-0.068713,0.593338
24.236973,-0.061054,-0.074386,0.640407
24.246983,-0.097419,-0.077093,0.560178
24.257024,-0.098308,-0.077651,0.678745
24.267033,-0.104890,-0.089965,0.577188
24.277074,-0.142324,-0.126052,0.555550
24.297124,-0.054758,-0.069786,0.566740
24.307164,-0.118771,-0.095224,0.569647
24.317174,-0.040890,-0.072023,0.578518
24.327214,-0.084642,-0.093255,0.581501
24.337224,-0.106008,-0.109184,0.577094
24.347264,-0.061152,-0.082692,0.590162
24.367314,-0.122983,-0.094294,0.601686
24.377324,-0.053672,-0.073085,0.585955
24.387364,-0.120896,-0.101701,0.585634
24.397404,-0.144329,-0.101670,0.595183
24.407414,-0.103780,-0.075027,0.579398
24.417454,-0.125099,-0.092182,0.608100
24.437504,-0.194446,-0.100353,0.576891
24.447514,-0.139873,-0.062439,0.651996
24.457555,-0.153920,-0.096259,0.586637
24.467595,-0.184787,-0.098441,0.617519
24.477605,-0.139750,-0.061750,0.732116
24.487645,-0.174180,-0.094006,0.575909
24.507695,-0.104692,-0.062583,0.658502
24.517705,-0.168790,-0.082368,0.595207
24.527745,-0.131316,-0.058255,0.664858
24.537785,-0.127131,-0.064484,0.624248
24.547795,-0.107917,-0.049560,0.616895
24.557835,-0.123945,-0.070923,0.628500
24.577885,-0.148468,-0.063271,0.608172
24.587895,-0.070549,-0.046655,0.654399
24.597935,-0.197541,-0.082355,0.612219
24.607976,-0.257332,-0.107675,0.587365
24.617985,-0.062981,-0.029785,0.695092
24.628026,-0.170903,-0.071646,0.587774
24.658086,-0.202917,-0.089727,0.594010
24.658086,-0.202917,-0.089727,0.594010
24.668126,-0.186862,-0.068451,0.600564
24.678136,-0.177272,-0.072784,0.606979
24.688176,-0.185876,-0.095132,0.596168
24.698216,-0.174077,-0.065248,0.592069
24.728276,-0.110065,-0.038727,0.585962
24.728276,-0.110065,-0.038727,0.585962
24.738316,-0.041745,-0.016674,0.618301
24.748326,-0.086627,-0.047393,0.595599
24.758366,-0.150594,-0.052509,0.592194
24.768407,-0.177228,-0.056765,0.607055
24.788457,-0.083431,-0.046320,0.592409
24.798466,-0.094018,-0.026045,0.603158
24.808552,-0.142093,-0.052456,0.575126
24.818561,-0.109037,-0.061233,0.601881
24.828602,-0.070596,-0.024962,0.584000
24.838642,-0.151689,-0.050259,0.568701
24.848652,-0.137726,-0.045257,0.630719
24.858692,-0.075967,-0.035584,0.575389
24.868702,-0.161292,-0.057733,0.575048
24.878742,-0.094066,-0.035586,0.588157
24.888752,-0.121823,-0.045046,0.575217
24.898792,-0.153804,-0.053536,0.585771
24.908832,-0.138922,-0.050229,0.553781
24.928883,-0.152791,-0.058758,0.560112
24.928883,-0.152791,-0.058758,0.560112
24.938892,-0.161339,-0.064050,0.555790
24.948933,-0.170877,-0.053415,0.571837
24.958942,-0.158139,-0.058680,0.547279
24.968983,-0.191170,-0.067217,0.568511
24.978992,-0.135711,-0.048129,0.559141
24.999073,-0.152806,-0.063020,0.557955
24.999073,-0.152806,-0.063020,0.557955
25.009083,-0.153889,-0.065117,0.550465
25.019123,-0.176295,-0.076816,0.555689
25.029133,-0.136840,-0.067313,0.551570
25.039173,-0.186978,-0.084242,0.552419
25.049183,-0.181684,-0.091689,0.542785
25.069263,-0.165640,-0.071456,0.543993
25.069263,-0.165640,-0.071456,0.543993
25.079273,-0.211527,-0.088358,0.536309
25.089313,-0.166766,-0.090650,0.538558
25.099323,-0.116649,-0.082274,0.539804
25.109363,-0.203056,-0.105448,0.530910
25.119373,-0.178516,-0.100223,0.538480
25.139454,-0.132603,-0.071553,0.541947
25.149464,-0.091074,-0.084498,0.540933
25.159504,-0.180753,-0.116043,0.497807
25.169514,-0.110205,-0.082452,0.572936
25.179554,-0.071939,-0.073633,0.488695
25.189564,-0.154060,-0.121666,0.539515
25.209644,-0.087997,-0.101363,0.491724
25.209644,-0.087997,-0.101363,0.491724
25.219654,-0.132747,-0.115262,0.525717
25.229694,-0.064496,-0.097299,0.519581
25.239704,-0.168034,-0.134173,0.483870
25.249744,-0.160470,-0.118366,0.523489
25.259754,-0.059177,-0.091900,0.503598
25.279804,-0.139154,-0.110894,0.509697
25.289844,-0.105057,-0.103438,0.490598
25.299885,-0.147736,-0.120386,0.490400
25.309894,-0.105036,-0.097041,0.492765
25.319935,-0.125314,-0.103352,0.486270
25.329945,-0.117822,-0.092702,0.487409
25.349995,-0.145553,-0.095780,0.479841
25.360035,-0.118872,-0.087364,0.488500
25.370075,-0.094325,-0.074623,0.487560
25.380085,-0.146608,-0.092578,0.480921
25.390125,-0.139121,-0.089454,0.492707
25.400135,-0.113546,-0.081986,0.476790
25.420185,-0.152959,-0.077616,0.483111
25.430225,-0.152987,-0.085067,0.477734
25.440266,-0.122044,-0.074508,0.482143
25.450275,-0.147626,-0.075493,0.482067
25.460316,-0.162566,-0.080769,0.478796
25.470325,-0.096402,-0.051092,0.481256
25.490375,-0.178543,-0.075362,0.475573
25.500416,-0.115588,-0.048868,0.475873
25.510456,-0.145472,-0.061566,0.471457
25.520466,-0.144396,-0.058371,0.472543
25.530506,-0.122001,-0.053099,0.471562
25.540516,-0.142259,-0.055164,0.470428
25.560566,-0.128417,-0.053012,0.457658
25.570606,-0.110254,-0.044594,0.471635
25.580616,-0.122045,-0.061577,0.457635
25.590656,-0.106026,-0.049881,0.457735
25.600696,-0.105998,-0.040275,0.458848
25.610706,-0.130588,-0.064727,0.452255
25.630756,-0.123138,-0.061487,0.439473
25.640797,-0.110333,-0.064808,0.455516
25.650806,-0.144450,-0.060355,0.440487
25.660847,-0.114578,-0.049773,0.440620
25.670887,-0.113560,-0.063629,0.434148
25.680897,-0.162614,-0.075232,0.437162
25.700947,-0.114605,-0.056150,0.434180
25.700947,-0.114605,-0.056150,0.434180
25.710987,-0.128490,-0.066784,0.434092
25.720997,-0.166878,-0.071984,0.430756
25.731037,-0.093225,-0.032725,0.434350
25.741077,-0.100737,-0.048694,0.428913
25.751087,-0.148739,-0.063489,0.428710
25.771137,-0.102866,-0.046541,0.426781
25.781177,-0.114575,-0.043320,0.431037
25.791187,-0.141235,-0.046417,0.426675
25.801227,-0.126317,-0.046455,0.424580
25.811288,-0.109222,-0.029408,0.421503
25.821298,-0.155099,-0.048497,0.424491
25.841348,-0.125244,-0.041093,0.419267
25.851388,-0.154055,-0.052742,0.418064
25.861398,-0.142339,-0.052755,0.412756
25.871438,-0.113521,-0.040053,0.417168
25.881448,-0.145526,-0.049546,0.413830
25.891488,-0.133823,-0.058137,0.415958
25.911538,-0.130608,-0.051740,0.415997
25.921578,-0.092202,-0.041211,0.421495
25.931588,-0.099682,-0.046511,0.418244
25.941628,-0.132731,-0.050680,0.419201
25.951638,-0.096456,-0.035837,0.417235
25.961678,-0.063400,-0.033844,0.424814
25.971719,-0.119960,-0.060359,0.424532
25.981728,-0.071912,-0.026321,0.420553
25.991769,-0.072998,-0.034871,0.422646
26.001778,-0.112484,-0.051814,0.419252
26.011819,-0.093275,-0.041182,0.416151
26.021829,-0.090051,-0.035893,0.424730
26.031869,-0.117818,-0.046397,0.406444
26.051919,-0.109275,-0.041090,0.407561
26.061959,-0.122085,-0.048524,0.407491
26.071969,-0.116733,-0.038919,0.405414
26.082009,-0.090091,-0.040074,0.405483
26.092019,-0.127426,-0.047393,0.397867
26.102059,-0.118914,-0.052760,0.397865
26.122109,-0.130670,-0.059084,0.388189
26.132150,-0.082634,-0.037932,0.399104
26.142159,-0.113633,-0.064474,0.387142
26.152200,-0.096587,-0.068816,0.390374
26.162209,-0.112586,-0.074114,0.392441
26.172250,-0.130708,-0.070811,0.383861
26.192300,-0.103013,-0.077314,0.384975
26.202340,-0.128657,-0.096418,0.377336
26.212350,-0.105140,-0.073015,0.380716
26.222390,-0.107286,-0.072962,0.371097
26.232400,-0.104084,-0.076217,0.379636
26.242440,-0.120084,-0.076125,0.371046
26.262490,-0.115812,-0.071857,0.368942
26.272530,-0.108323,-0.064431,0.374339
26.282540,-0.127545,-0.073944,0.366763
26.292580,-0.109396,-0.063329,0.367932
26.302590,-0.115753,-0.052654,0.373306
26.312631,-0.138216,-0.072791,0.356057
26.332681,-0.077366,-0.043142,0.368116
26.342721,-0.171265,-0.074810,0.353820
26.352731,-0.106174,-0.045104,0.350935
26.362771,-0.035702,-0.012348,0.376922
26.372781,-0.180882,-0.066083,0.321788
26.382821,-0.163747,-0.059933,0.364593
26.402871,-0.151009,-0.060891,0.332577
26.412911,-0.137031,-0.039780,0.375444
26.422921,-0.092333,-0.027869,0.310463
26.432961,-0.120004,-0.039754,0.358400
26.442971,-0.048542,-0.015378,0.349099
26.453011,-0.152076,-0.053341,0.317655
26.473061,-0.067731,-0.010994,0.338384
26.483071,-0.126415,-0.035371,0.339175
26.493111,-0.079507,-0.031256,0.340392
26.503152,-0.114699,-0.033233,0.330672
26.513162,-0.093327,-0.019474,0.342546
26.523202,-0.072027,-0.019493,0.331923
26.533212,-0.132830,-0.037440,0.329534
26.543252,-0.131761,-0.037454,0.331673
26.553262,-0.100816,-0.020437,0.325430
26.563302,-0.080528,-0.012005,0.335140
26.573342,-0.125387,-0.038487,0.319935
26.583352,-0.113621,-0.028964,0.330695
26.593392,-0.080543,-0.015189,0.330852
26.613442,-0.078440,-0.023724,0.327612
26.623452,-0.111505,-0.031077,0.324282
26.633492,-0.104047,-0.032169,0.324297
26.643533,-0.079500,-0.020506,0.325488
26.653542,-0.107236,-0.028955,0.324304
26.663583,-0.088079,-0.035394,0.317917
26.683633,-0.085936,-0.034359,0.323269
26.693642,-0.092384,-0.047097,0.311440
26.703683,-0.069927,-0.025862,0.322285
26.713723,-0.089195,-0.042770,0.297583
26.723733,-0.104094,-0.041714,0.310365
26.723733,-0.104094,-0.041714,0.310365
26.733773,-0.066800,-0.039654,0.300864
26.763833,-0.107382,-0.062961,0.288891
26.773873,-0.124415,-0.053274,0.284617
26.783883,-0.084965,-0.051297,0.291145
26.793923,-0.131947,-0.074568,0.275950
26.803964,-0.102079,-0.062898,0.271815
26.824028,-0.122380,-0.077753,0.265279
26.834037,-0.104208,-0.067208,0.281402
26.844078,-0.104208,-0.067208,0.281402
26.854087,-0.105309,-0.073557,0.269619
26.864128,-0.087172,-0.065057,0.266505
26.874168,-0.103175,-0.063876,0.253647
26.894218,-0.100033,-0.079870,0.246103
26.894218,-0.100033,-0.079870,0.246103
26.914268,-0.065868,-0.054315,0.238841
26.914268,-0.065868,-0.054315,0.238841
26.924278,-0.141584,-0.067932,0.234294
26.944358,-0.117104,-0.056057,0.190621
26.964408,-0.087078,-0.022264,0.250684
26.964408,-0.087078,-0.022264,0.250684
26.984458,-0.081682,-0.005260,0.264666
26.984458,-0.081682,-0.005260,0.264666
26.994468,-0.119045,-0.007103,0.228235
27.004509,-0.090209,0.005543,0.244398
27.014549,-0.140336,-0.006036,0.243136
27.044609,-0.142445,0.013289,0.222926
27.044609,-0.142445,0.013289,0.222926
27.054649,-0.064542,0.042883,0.235031
27.064659,-0.077297,0.051433,0.242514
27.074699,-0.089088,0.040913,0.216795
27.084709,-0.083726,0.041867,0.237110
27.114799,-0.084792,0.048334,0.225387
27.114799,-0.084792,0.048334,0.225387
27.124839,-0.089077,0.048419,0.210421
27.134849,-0.061341,0.052555,0.220131
27.144889,-0.076264,0.055842,0.212628
27.154899,-0.074150,0.047272,0.216866
27.174980,-0.089097,0.045250,0.202928
27.174980,-0.089097,0.045250,0.202928
27.184989,-0.060299,0.046164,0.215831
27.195030,-0.088050,0.036688,0.206095
27.205040,-0.086976,0.043123,0.199720
27.215080,-0.067756,0.047256,0.215815
27.225090,-0.079532,0.038842,0.196515
27.255180,-0.083799,0.034559,0.201824
27.255180,-0.083799,0.034559,0.201824
27.265220,-0.072057,0.035538,0.212543
27.275230,-0.095553,0.028230,0.193216
27.285270,-0.079524,0.037739,0.203987
27.295280,-0.066732,0.035536,0.209353
27.325370,-0.091277,0.031405,0.196448
27.325370,-0.091277,0.031405,0.196448
27.335411,-0.078479,0.032416,0.199692
27.345420,-0.061395,0.039800,0.207252
27.355461,-0.068887,0.033463,0.197587
27.365470,-0.087031,0.022827,0.200692
27.395561,-0.106286,-0.004892,0.203712
27.395561,-0.106286,-0.004892,0.203712
27.405601,-0.043324,0.025889,0.200827
27.415611,-0.052983,0.000280,0.202815
27.425651,-0.070072,-0.015709,0.208034
27.435661,-0.054097,-0.013570,0.196338
27.455711,-0.043468,-0.024284,0.196316
27.465751,-0.040285,-0.031790,0.200562
27.475792,-0.069085,-0.046703,0.212163
27.485801,-0.037131,-0.047819,0.200495
27.495842,-0.001916,-0.040534,0.216650
27.505851,-0.016851,-0.045825,0.216584
27.525901,-0.027587,-0.068166,0.205766
27.525901,-0.027587,-0.068166,0.205766
27.535942,-0.015830,-0.055384,0.204791
27.545982,0.093012,-0.027065,0.239409
27.555992,-0.034039,-0.083046,0.194996
27.566032,-0.074483,-0.088476,0.241860
27.576042,-0.032947,-0.072360,0.192913
27.596092,0.014070,-0.042737,0.219889
27.606132,-0.086277,-0.095757,0.208678
27.616172,-0.018928,-0.048146,0.257159
27.626182,0.002315,-0.037212,0.188904
27.636222,-0.066961,-0.059611,0.230267
27.646232,-0.002904,-0.018154,0.227436
27.666282,-0.080772,-0.046781,0.236699
27.666282,-0.080772,-0.046781,0.236699
27.676323,-0.048753,-0.023330,0.224080
27.686332,-0.062609,-0.017895,0.213385
27.696373,-0.023123,-0.006336,0.226367
27.706413,-0.063656,-0.023337,0.235789
27.716423,-0.111690,-0.032646,0.204634
27.736473,-0.076462,-0.008162,0.197370
27.736473,-0.076462,-0.008162,0.197370
27.746513,-0.083855,-0.004043,0.234756
27.756523,-0.067855,0.006634,0.224169
27.766563,-0.093477,-0.006072,0.218697
27.776603,-0.082777,0.002376,0.231585
27.786613,-0.085975,0.006698,0.223051
27.806663,-0.106237,-0.003971,0.234695
27.806663,-0.106237,-0.003971,0.234695
27.816735,-0.121183,-0.005997,0.221825
27.826745,-0.080627,0.007698,0.233752
27.836785,-0.093444,0.000285,0.229409
27.846826,-0.108368,-0.005042,0.236820
27.856835,-0.088104,0.001310,0.234770
27.876886,-0.064641,0.003339,0.241253
27.876886,-0.064641,0.003339,0.241253
27.886926,-0.079569,0.000179,0.242265
27.896936,-0.081687,0.001218,0.249742
27.906976,-0.052902,0.005407,0.247705
27.917016,-0.046481,0.010690,0.255225
27.927026,-0.067833,-0.004207,0.258300
27.957116,-0.081707,-0.008413,0.253969
27.957116,-0.081707,-0.008413,0.253969
27.967126,-0.057155,-0.001073,0.265822
27.977166,-0.037962,0.002068,0.265890
27.987207,-0.047565,-0.000021,0.262649
27.997216,-0.036894,0.005289,0.261635
28.027307,-0.046553,-0.016013,0.256167
28.027307,-0.046553,-0.016013,0.256167
28.037316,-0.088172,-0.038330,0.261287
28.047357,-0.068948,-0.024514,0.262474
28.057366,-0.008147,-0.010869,0.271252
28.067407,-0.064746,-0.043725,0.257054
28.087457,-0.054062,-0.037378,0.262454
28.097497,-0.022105,-0.042816,0.261449
28.107507,-0.053021,-0.048076,0.265611
28.117547,-0.037067,-0.055563,0.257074
28.127557,-0.017846,-0.050356,0.272107
28.137597,-0.034910,-0.051343,0.266714
28.157647,-0.061622,-0.076897,0.268656
28.157647,-0.061622,-0.076897,0.268656
28.167688,-0.025336,-0.058855,0.267773
28.177697,-0.045595,-0.064149,0.271965
28.187738,-0.055223,-0.071543,0.261221
28.197747,-0.056272,-0.069439,0.268706
28.207788,-0.061616,-0.073683,0.266534
28.227838,-0.071200,-0.069370,0.264392
28.237878,-0.071203,-0.073667,0.269713
28.247888,-0.063733,-0.068337,0.266554
28.257928,-0.080770,-0.068332,0.277189
28.267938,-0.106394,-0.079956,0.268517
28.277978,-0.063696,-0.057683,0.271945
28.298028,-0.091443,-0.071481,0.272872
28.308068,-0.068990,-0.048079,0.277317
28.318078,-0.048715,-0.041763,0.282744
28.328118,-0.079659,-0.054473,0.281530
28.338128,-0.067892,-0.038492,0.281639
28.348168,-0.034835,-0.031113,0.279628
28.368219,-0.081758,-0.039489,0.276254
28.368219,-0.081758,-0.039489,0.276254
28.378259,-0.046554,-0.031091,0.282801
28.388269,-0.072148,-0.034191,0.278443
28.398309,-0.071076,-0.034215,0.282718
28.408319,-0.059348,-0.031034,0.279561
28.418359,-0.076419,-0.036308,0.277353
28.438409,-0.086030,-0.042679,0.276228
28.448449,-0.070034,-0.039527,0.276287
28.458459,-0.059349,-0.028878,0.275298
28.468499,-0.084976,-0.044798,0.271948
28.478509,-0.075377,-0.041621,0.270921
28.488549,-0.058300,-0.030982,0.267814
28.508599,-0.089234,-0.040493,0.267683
28.518640,-0.060458,-0.038430,0.263500
28.528649,-0.073235,-0.033044,0.262422
28.538690,-0.087082,-0.031946,0.265593
28.548699,-0.081774,-0.037283,0.261310
28.558740,-0.060434,-0.028814,0.262477
28.578790,-0.073232,-0.030898,0.260296
28.578790,-0.073232,-0.030898,0.260296
28.588830,-0.068960,-0.028786,0.262454
28.598840,-0.086032,-0.036211,0.263440
28.608880,-0.080693,-0.030873,0.260275
28.618890,-0.074293,-0.029831,0.261366
28.628930,-0.088176,-0.041549,0.264477
28.648980,-0.088156,-0.032995,0.262381
28.659021,-0.094601,-0.048973,0.258015
28.669030,-0.080707,-0.038369,0.264512
28.679071,-0.118060,-0.053169,0.257930
28.689080,-0.081798,-0.044748,0.259138
28.699121,-0.076454,-0.041582,0.263441
28.719171,-0.080746,-0.053325,0.265510
28.729180,-0.079682,-0.049017,0.256987
28.739221,-0.098888,-0.060732,0.263288
28.749261,-0.061549,-0.048043,0.264520
28.759271,-0.078611,-0.049035,0.260195
28.769311,-0.086070,-0.053323,0.268700
28.789361,-0.079664,-0.047994,0.266606
28.799371,-0.074325,-0.044813,0.267704
28.809411,-0.042334,-0.036353,0.263560
28.819492,-0.042320,-0.035320,0.271042
28.829502,-0.052973,-0.039608,0.281675
28.839542,-0.083929,-0.049053,0.267658
28.859593,0.013176,-0.013114,0.279846
28.869602,-0.060464,-0.042722,0.267752
28.879643,-0.068974,-0.041667,0.276280
28.889683,-0.020980,-0.026846,0.271141
28.899693,-0.047633,-0.028891,0.269990
28.909733,-0.032687,-0.023630,0.276465
28.929783,-0.059379,-0.034167,0.264591
28.929783,-0.059379,-0.034167,0.264591
28.939793,-0.033757,-0.022538,0.272195
28.949833,-0.067910,-0.035202,0.263494
28.959873,-0.060440,-0.034178,0.267793
28.969883,-0.061507,-0.029863,0.259265
28.979923,-0.061503,-0.028800,0.260338
28.999973,-0.052980,-0.024505,0.249700
29.009983,-0.057208,-0.020296,0.265731
29.020023,-0.061525,-0.035192,0.257103
29.030064,-0.070029,-0.028772,0.260314
29.040073,-0.042289,-0.017105,0.258310
29.050114,-0.044463,-0.028815,0.251839
29.080174,-0.056205,-0.036257,0.252840
29.080174,-0.056205,-0.036257,0.252840
29.090214,-0.067926,-0.034073,0.250681
29.100224,-0.088212,-0.045745,0.248434
29.110264,-0.089299,-0.049982,0.242001
29.120304,-0.072196,-0.035117,0.248528
29.150364,-0.099967,-0.054225,0.243020
29.150364,-0.099967,-0.054225,0.243020
29.160404,-0.092499,-0.052118,0.244119
29.170414,-0.095704,-0.055317,0.245163
29.180454,-0.109581,-0.062742,0.244021
29.190495,-0.107437,-0.055248,0.238721
29.220554,-0.102105,-0.053119,0.236610
29.230595,-0.066886,-0.041537,0.247444
29.240604,-0.099974,-0.057433,0.244073
29.250645,-0.080753,-0.043608,0.243123
29.260685,-0.081817,-0.045765,0.248451
29.270695,-0.104220,-0.048856,0.239829
29.280735,-0.053003,-0.030898,0.246465
29.290745,-0.081801,-0.038275,0.245282
29.300785,-0.085015,-0.043599,0.244180
29.310795,-0.075393,-0.036185,0.250651
29.320835,-0.063670,-0.032989,0.244289
29.330875,-0.048732,-0.029859,0.249686
29.350926,-0.076471,-0.037219,0.244233
29.360935,-0.019923,-0.023590,0.259409
29.370976,-0.051939,-0.036281,0.254988
29.380985,-0.060446,-0.029851,0.256063
29.391026,-0.030593,-0.026749,0.257228
29.401066,-0.042347,-0.036312,0.255014
29.421116,-0.045533,-0.035259,0.260351
29.431126,-0.051957,-0.041611,0.252826
29.441166,-0.040211,-0.035257,0.256093
29.451176,-0.038080,-0.036336,0.257162
29.461216,-0.065844,-0.054391,0.254864
29.471226,-0.048768,-0.046981,0.257082
29.491306,-0.039170,-0.043798,0.254988
29.501316,-0.044509,-0.046980,0.253890
29.511356,-0.050915,-0.052309,0.255983
29.521366,-0.030642,-0.041675,0.251817
29.531406,-0.030657,-0.047015,0.251791
29.541416,-0.040233,-0.041649,0.252858
29.551457,-0.033844,-0.042727,0.250734
29.561497,-0.039173,-0.043788,0.252851
29.571507,-0.059447,-0.050110,0.248492
29.581547,-0.045574,-0.043747,0.248561
29.591557,-0.050896,-0.039443,0.245362
29.601597,-0.070100,-0.045783,0.244211
29.611607,-0.080783,-0.054287,0.243073
29.631687,-0.069012,-0.038316,0.245317
29.641697,-0.086093,-0.046789,0.242025
29.651737,-0.073302,-0.046836,0.243128
29.661747,-0.069018,-0.038296,0.241044
29.671787,-0.082858,-0.035067,0.245294
29.681797,-0.076475,-0.039360,0.245292
29.691837,-0.093552,-0.046770,0.243073
29.701878,-0.066848,-0.026576,0.245379
29.711887,-0.064713,-0.026593,0.247521
29.721928,-0.089278,-0.045741,0.248431
29.731937,-0.072183,-0.029773,0.247485
29.741978,-0.034849,-0.019220,0.248706
29.751988,-0.098840,-0.037187,0.252717
29.772068,-0.051901,-0.021320,0.252922
29.782078,-0.081771,-0.032986,0.255989
29.792118,-0.088196,-0.039332,0.247396
29.802128,-0.040154,-0.017122,0.260452
29.812181,-0.061501,-0.027727,0.259275
29.822191,-0.089233,-0.031878,0.252769
29.842241,-0.088204,-0.038229,0.239923
29.852281,-0.029450,-0.012996,0.284002
29.862322,-0.048705,-0.023482,0.256126
29.872331,-0.108436,-0.042531,0.260143
29.882372,-0.032656,-0.007570,0.267995
29.892381,-0.047603,-0.018211,0.270040
29.912431,-0.038016,-0.013920,0.259405
29.922472,-0.048702,-0.026721,0.263588
29.932512,-0.076424,-0.033059,0.267754
29.942522,-0.053976,-0.011798,0.273258
29.952562,-0.062570,-0.029869,0.261398
29.962572,-0.077503,-0.037322,0.266663
29.972612,-0.048663,-0.011765,0.262590
29.982622,-0.074288,-0.033081,0.270964
29.992662,-0.070055,-0.032998,0.250680
30.002702,-0.066774,-0.017116,0.277470
30.012712,-0.098835,-0.039358,0.260185
30.022753,-0.091322,-0.028774,0.275211
30.032762,-0.039054,-0.007539,0.265842
30.052812,-0.092414,-0.035153,0.269836
30.062853,-0.069994,-0.022420,0.272095
30.072893,-0.080667,-0.024491,0.265646
30.082903,-0.068909,-0.016021,0.273196
30.092943,-0.111614,-0.041503,0.270821
30.102953,-0.108376,-0.025484,0.268770
30.123003,-0.114796,-0.038309,0.275101
30.133043,-0.102016,-0.040476,0.272989
30.143083,-0.074258,-0.025636,0.277409
30.153093,-0.105181,-0.027641,0.270905
30.163133,-0.078547,-0.037389,0.281614
30.173143,-0.114794,-0.039392,0.278300
30.193193,-0.077462,-0.030990,0.282716
30.203233,-0.100933,-0.037301,0.278348
30.213243,-0.072130,-0.029940,0.282736
30.223284,-0.088122,-0.033101,0.284813
30.233324,-0.100934,-0.041608,0.285805
30.243334,-0.066769,-0.023595,0.292394
30.263384,-0.068919,-0.033225,0.297684
30.273424,-0.092372,-0.030977,0.290152
30.283434,-0.079577,-0.032112,0.295523
30.293474,-0.073199,-0.035311,0.290185
30.303514,-0.080620,-0.022487,0.293429
30.313524,-0.064650,-0.030024,0.295574
30.333574,-0.084885,-0.027853,0.301938
30.343614,-0.057173,-0.025792,0.298820
30.353624,-0.057137,-0.015133,0.303143
30.363664,-0.039021,-0.018416,0.307450
30.373705,-0.085965,-0.040731,0.315761
30.383714,-0.075256,-0.013996,0.300962
30.393755,-0.008048,0.002822,0.311909
30.403764,-0.065690,-0.030102,0.312663
30.413805,-0.096607,-0.027820,0.302974
30.423815,-0.017612,0.010303,0.317259
30.423815,-0.017612,0.010303,0.317259
30.443895,-0.089129,-0.025744,0.310482
30.453905,-0.063491,-0.002317,0.307459
30.473955,-0.072086,-0.027925,0.308382
30.473955,-0.072086,-0.027925,0.308382
30.494005,-0.065652,-0.016219,0.312728
30.494005,-0.065652,-0.016219,0.312728
30.504045,-0.081715,-0.039626,0.305096
30.514086,-0.080573,-0.016170,0.312687
30.524095,-0.055005,-0.017296,0.307412
30.554186,-0.079561,-0.033241,0.308337
30.554186,-0.079561,-0.033241,0.308337
30.574236,-0.076369,-0.037543,0.312598
30.574236,-0.076369,-0.037543,0.312598
30.584245,-0.092363,-0.040700,0.313607
30.604326,-0.103032,-0.041708,0.308232
30.624376,-0.096637,-0.040650,0.306118
30.624376,-0.096637,-0.040650,0.306118
30.634386,-0.084884,-0.031087,0.308332
30.644426,-0.084926,-0.047111,0.309324
30.654436,-0.121167,-0.051291,0.314545
30.664476,-0.083830,-0.036441,0.310446
30.674516,-0.084932,-0.050325,0.311446
30.704576,-0.084912,-0.041772,0.309350
30.704576,-0.084912,-0.041772,0.309350
30.714617,-0.098780,-0.049227,0.314617
30.724626,-0.080667,-0.050344,0.312525
30.734667,-0.091302,-0.040688,0.310405
30.744707,-0.087066,-0.051386,0.311435
30.774767,-0.072110,-0.040776,0.315799
30.774767,-0.072110,-0.040776,0.315799
30.784807,-0.088151,-0.059941,0.314596
30.794817,-0.109405,-0.038524,0.316775
30.804857,-0.051818,-0.028047,0.320188
30.814948,-0.072111,-0.041849,0.316862
30.845008,-0.061430,-0.036569,0.322258
30.845008,-0.061430,-0.036569,0.322258
30.855048,-0.069952,-0.035478,0.323307
30.865058,-0.099818,-0.038540,0.313597
30.875098,-0.056084,-0.036642,0.334022
30.885139,-0.061424,-0.030126,0.314811
30.905189,-0.060398,-0.055856,0.334988
30.915199,-0.107340,-0.058786,0.309207
30.925239,-0.063518,-0.027006,0.334047
30.935249,-0.071060,-0.048270,0.318971
30.945289,-0.081724,-0.055756,0.328520
30.955329,-0.095561,-0.042840,0.316793
30.985389,-0.106243,-0.051349,0.316723
30.985389,-0.106243,-0.051349,0.316723
30.995429,-0.063555,-0.032275,0.319067
31.005439,-0.042289,-0.051577,0.321171
31.015479,-0.105190,-0.050234,0.306049
31.025489,-0.090231,-0.047170,0.325333
31.055579,-0.068890,-0.035472,0.321174
31.055579,-0.068890,-0.035472,0.321174
31.065620,-0.102045,-0.064082,0.296378
31.075629,-0.050777,-0.036588,0.319082
31.085670,-0.098765,-0.036347,0.300791
31.095679,-0.077468,-0.042818,0.299751
31.135810,-0.075363,-0.051359,0.297580
31.135810,-0.075363,-0.051359,0.297580
31.145820,-0.106234,-0.034141,0.291167
31.155860,-0.050745,-0.022685,0.314875
31.165870,-0.096697,-0.052312,0.287903
31.195960,-0.126588,-0.062833,0.274952
31.195960,-0.126588,-0.062833,0.274952
31.206001,-0.104083,-0.036365,0.308254
31.216010,-0.080657,-0.033141,0.288038
31.226051,-0.108410,-0.049075,0.288954
31.236060,-0.090263,-0.041684,0.294380
31.266151,-0.064681,-0.034235,0.282736
31.266151,-0.064681,-0.034235,0.282736
31.276191,-0.024093,-0.015256,0.306438
31.286201,-0.130929,-0.076576,0.248170
31.296241,-0.126519,-0.055510,0.307033
31.306251,0.029140,-0.017403,0.272393
31.336341,-0.104295,-0.069086,0.226914
31.336341,-0.104295,-0.069086,0.226914
31.346381,-0.057200,-0.044018,0.313688
31.356391,-0.027417,-0.031001,0.250808
31.366431,-0.117045,-0.073478,0.261041
31.376441,-0.071129,-0.050203,0.276233
31.396491,-0.062634,-0.052286,0.259155
31.406532,-0.094648,-0.064982,0.255802
31.416572,-0.104240,-0.055258,0.238730
31.426582,-0.054077,-0.043795,0.264560
31.436622,-0.098920,-0.055245,0.232336
31.446632,-0.096766,-0.051016,0.239839
31.466682,-0.088289,-0.063813,0.230188
31.466682,-0.088289,-0.063813,0.230188
31.476722,-0.121302,-0.056251,0.234406
31.486762,-0.048772,-0.034039,0.230438
31.496772,-0.070139,-0.048891,0.223900
31.506812,-0.105311,-0.045542,0.217409
31.516822,-0.062659,-0.041435,0.222887
31.536872,-0.064781,-0.031766,0.212245
31.536872,-0.064781,-0.031766,0.212245
31.546912,-0.065868,-0.040311,0.213270
31.556953,-0.093622,-0.047625,0.198204
31.566962,-0.049854,-0.028600,0.210165
31.577003,-0.075492,-0.043412,0.198274
31.587012,-0.077601,-0.037013,0.201503
31.607063,-0.043489,-0.031759,0.196281
31.607063,-0.043489,-0.031759,0.196281
31.617103,-0.047735,-0.028567,0.201625
31.627143,-0.072259,-0.029530,0.196212
31.637153,-0.031734,-0.025430,0.204889
31.647193,-0.019975,-0.007268,0.195393
31.657203,-0.037047,-0.014693,0.196379
31.687293,0.010967,-0.004245,0.212585
31.687293,0.010967,-0.004245,0.212585
31.697334,-0.037094,-0.029624,0.192036
31.707343,-0.043412,-0.013690,0.214526
31.717384,0.038687,0.005332,0.200956
31.727393,-0.012540,-0.022294,0.206025
31.747443,-0.008297,-0.019013,0.186824
31.747443,-0.008297,-0.019013,0.186824
31.757484,0.022677,-0.013935,0.221117
31.767524,-0.025344,-0.026514,0.203833
31.777534,-0.021079,-0.028689,0.209176
31.787574,0.019455,-0.018156,0.212542
31.797584,-0.012570,-0.034046,0.207038
31.827694,-0.018959,-0.032967,0.209161
31.827694,-0.018959,-0.032967,0.209161
31.837704,-0.016848,-0.040450,0.209132
31.847744,-0.008329,-0.041530,0.205946
31.857784,-0.009386,-0.041557,0.212352
31.867794,-0.016879,-0.045739,0.198425
31.897885,-0.024349,-0.049991,0.199452
31.907894,-0.021165,-0.053190,0.196241
31.917935,-0.043590,-0.066985,0.192909
31.927975,-0.019058,-0.059585,0.191944
31.937985,-0.082003,-0.075338,0.178877
31.958035,-0.051081,-0.073328,0.184313
31.968075,-0.109752,-0.089131,0.178735
31.978085,-0.010522,-0.052101,0.184525
31.988125,-0.043598,-0.061575,0.177980
31.998165,-0.074520,-0.068970,0.182132
32.008175,-0.051088,-0.065767,0.166189
32.028225,-0.059603,-0.063618,0.169380
32.038265,-0.063854,-0.061489,0.173651
32.048275,-0.037175,-0.047682,0.171654
32.058315,-0.042514,-0.049786,0.168425
32.068356,-0.038255,-0.051940,0.169494
32.078365,-0.045752,-0.062575,0.165151
32.098416,-0.022245,-0.041293,0.165316
32.108456,-0.037189,-0.048715,0.164172
32.118466,-0.040413,-0.050774,0.150266
32.128506,-0.047861,-0.047557,0.152397
32.138546,-0.052118,-0.048641,0.158790
32.148556,-0.031865,-0.041176,0.147131
32.178646,-0.038311,-0.053919,0.136370
32.178646,-0.038311,-0.053919,0.136370
32.188656,-0.046789,-0.041117,0.144953
32.198696,0.014004,-0.026368,0.146259
32.208737,-0.092725,-0.062175,0.112680
32.218746,-0.020061,-0.023155,0.167545
32.238796,-0.077754,-0.051610,0.126658
32.248837,-0.017989,-0.028360,0.137616
32.258846,-0.045726,-0.029262,0.121512
32.268887,-0.048952,-0.044243,0.129977
32.278896,-0.036147,-0.033560,0.120449
32.288937,-0.024403,-0.025044,0.118386
32.308987,-0.032968,-0.036744,0.114034
32.319027,-0.042541,-0.033544,0.121500
32.329037,-0.032965,-0.036754,0.116170
32.339077,-0.005217,-0.025112,0.119507
32.349087,-0.045753,-0.038873,0.121466
32.359127,-0.039369,-0.039937,0.116138
32.379177,-0.059649,-0.054857,0.123488
32.389218,-0.040454,-0.043102,0.108642
32.399227,0.003324,-0.020878,0.121687
32.409268,-0.050044,-0.046310,0.116078
32.419277,-0.067115,-0.046199,0.104281
32.429318,-0.002033,-0.030467,0.120558
32.449368,-0.006306,-0.031501,0.116269
32.449368,-0.006306,-0.031501,0.116269
32.459408,-0.038319,-0.040968,0.107590
32.469418,-0.077797,-0.052551,0.099948
32.479458,-0.044691,-0.034555,0.110807
32.489468,-0.007374,-0.021795,0.097084
32.499508,-0.075635,-0.049420,0.113856
32.509548,-0.048993,-0.039804,0.094747
32.519558,-0.018026,-0.025009,0.106653
32.529598,-0.042583,-0.035564,0.096921
32.539608,-0.047901,-0.033426,0.100122
32.549648,-0.018031,-0.023916,0.101317
32.559658,-0.033005,-0.037705,0.091597
32.569699,-0.029746,-0.020674,0.101300
32.579739,-0.022326,-0.032421,0.095924
32.589749,-0.052184,-0.038736,0.096880
32.599789,0.002241,-0.016512,0.102477
32.609799,-0.043671,-0.044109,0.097946
32.619839,-0.031909,-0.030264,0.098044
32.629849,0.009706,-0.014395,0.101439
32.639889,-0.022331,-0.035634,0.098045
32.659939,-0.003125,-0.026070,0.094939
32.669979,0.000100,-0.017552,0.098193
32.679989,-0.025490,-0.026053,0.106628
32.690029,-0.045818,-0.040822,0.081933
32.700039,0.006519,-0.016571,0.112102
32.710079,-0.028736,-0.033427,0.087356
32.730129,-0.020192,-0.033511,0.099130
32.730129,-0.020192,-0.033511,0.099130
32.740170,-0.046855,-0.034446,0.089437
32.750179,0.040620,-0.011281,0.099403
32.760220,-0.044716,-0.037708,0.100110
32.770230,-0.077816,-0.052491,0.087130
32.780270,0.017164,-0.015487,0.101454
32.800320,-0.029804,-0.038804,0.095873
32.810360,-0.037263,-0.032321,0.085201
32.820394,-0.033005,-0.035549,0.087334
32.830434,-0.057537,-0.039721,0.082974
32.840444,-0.028731,-0.029135,0.083103
32.850484,-0.055408,-0.040796,0.082975
32.870534,-0.023408,-0.032366,0.085239
32.880575,-0.078890,-0.049228,0.075392
32.890584,0.001125,-0.024966,0.084274
32.900625,-0.043696,-0.039721,0.073398
32.910634,-0.055445,-0.047143,0.070126
32.920675,-0.015976,-0.039841,0.079883
32.940725,-0.020248,-0.040875,0.075594
32.950765,-0.045860,-0.048227,0.066943
32.960775,-0.028776,-0.034379,0.062782
32.970815,-0.044786,-0.051490,0.078680
32.980825,-0.076828,-0.060865,0.050774
32.990865,-0.012755,-0.028074,0.073539
33.010915,-0.061904,-0.057690,0.046557
33.020955,-0.018117,-0.044111,0.080925
33.030965,-0.055485,-0.048094,0.045552
33.041005,-0.057599,-0.047065,0.055165
33.051015,-0.011706,-0.034490,0.074579
33.061056,-0.049111,-0.053434,0.041272
33.081106,-0.050164,-0.047008,0.038095
33.091115,-0.001069,-0.032303,0.056460
33.101156,-0.014921,-0.032268,0.058558
33.111196,-0.042666,-0.041764,0.053095
33.121206,0.014946,-0.023826,0.059749
33.131246,-0.025568,-0.024727,0.052155
33.141256,-0.017041,-0.026911,0.056441
33.151296,0.033131,-0.001474,0.063109
33.161306,-0.023451,-0.024689,0.042547
33.171346,-0.002084,-0.018457,0.065068
33.181386,0.013904,-0.007738,0.045935
33.191396,-0.038335,-0.018293,0.055355
33.201436,0.004345,-0.002428,0.058752
33.221486,0.020359,0.007131,0.058842
33.231496,-0.042624,-0.017120,0.036120
33.241536,-0.015923,-0.001229,0.044815
33.251577,0.044900,0.024199,0.046172
33.261587,-0.049008,-0.017135,0.043580
33.271627,-0.030846,-0.000097,0.041575
33.291677,-0.023372,0.005224,0.040552
33.301687,-0.013801,-0.001205,0.038412
33.311727,-0.014825,0.011593,0.042742
33.321767,-0.029780,0.006363,0.029858
33.331777,0.001161,0.010468,0.043849
33.341817,-0.027663,0.001016,0.029838
33.361867,-0.004206,0.001988,0.034181
33.361867,-0.004206,0.001988,0.034181
33.371877,-0.029811,-0.004311,0.028739
33.381917,-0.016982,0.004140,0.039497
33.391958,-0.032996,0.002122,0.025556
33.401967,-0.012733,0.002015,0.034157
33.412008,-0.019147,-0.003288,0.030910
33.432058,-0.000998,-0.003443,0.051255
33.442067,-0.023443,-0.010709,0.022317
33.452108,-0.018092,-0.010798,0.037286
33.462148,-0.028782,-0.014969,0.023350
33.472158,-0.022383,-0.012849,0.022310
33.482198,-0.026635,-0.016104,0.036169
33.502248,-0.010644,-0.017245,0.040481
33.512258,0.019209,-0.008758,0.032058
33.522298,-0.010678,-0.023601,0.029769
33.532308,-0.026683,-0.034264,0.037152
33.542348,-0.030975,-0.038466,0.025370
