time_tick,gyr_X_value,gyr_Y_value,gyr_Z_value
0.019154,0.090426,-0.062244,0.002092
0.019154,0.090426,-0.062244,0.002092
0.029195,-0.124626,0.023874,0.005110
0.039204,-0.063956,-0.004074,0.001940
0.049245,0.076606,-0.048306,-0.000017
0.059254,0.041462,-0.039664,0.003132
0.069295,-0.070333,0.001276,0.004084
0.079335,-0.032006,-0.012721,0.001988
0.089345,0.039336,-0.035365,-0.001127
0.099385,0.010580,-0.028874,0.000961
0.109395,-0.030938,-0.012730,0.003059
0.119435,-0.022428,-0.019170,0.004120
0.129445,0.007395,-0.024592,0.000972
0.139485,0.003139,-0.021369,-0.000092
0.149525,-0.007514,-0.021349,0.003083
0.159535,-0.010716,-0.023480,0.004132
0.169575,-0.012839,-0.020269,0.004141
0.179585,-0.004331,-0.024548,-0.000128
0.189626,0.003139,-0.022447,0.002039
0.199635,0.003132,-0.025656,0.003092
0.209676,-0.021364,-0.019169,0.003055
0.219716,-0.014969,-0.018111,0.000941
0.229726,0.000993,-0.026702,-0.000124
0.239766,0.002064,-0.025647,0.002021
0.249776,-0.007504,-0.019229,0.006298
0.259816,-0.023493,-0.018094,0.003054
0.269826,-0.005389,-0.022414,0.000947
0.279866,0.005265,-0.023512,-0.000097
0.289906,-0.000061,-0.024583,0.004156
0.299916,-0.017104,-0.020250,0.003062
0.309956,-0.018168,-0.019174,0.001996
0.319966,-0.001124,-0.022433,0.002027
0.330006,0.008458,-0.025663,0.000970
0.340016,-0.004321,-0.023501,0.004150
0.350056,-0.025627,-0.019155,0.003043
0.360066,-0.008583,-0.021336,0.000944
0.370106,0.009523,-0.025666,0.000973
0.380147,-0.002190,-0.023508,0.004156
0.390157,-0.017099,-0.019188,0.004135
0.400197,-0.013900,-0.018125,0.003080
0.410207,0.001003,-0.023503,0.000960
0.420247,0.004199,-0.023508,-0.000100
0.430257,-0.007523,-0.024553,0.003068
0.440297,-0.019231,-0.019181,0.004129
0.450337,-0.010708,-0.019198,0.002016
0.460347,0.002072,-0.022438,0.000968
0.470387,0.007396,-0.024597,0.002041
0.480397,-0.009646,-0.022421,0.005208
0.490437,-0.024558,-0.019168,0.005183
0.500447,-0.001121,-0.021365,0.002032
0.510487,0.005278,-0.020323,0.003123
0.520528,-0.007519,-0.022412,0.002010
0.530537,-0.010712,-0.021339,0.003074
0.540578,-0.011766,-0.017064,0.003091
0.550587,-0.009645,-0.019192,-0.000117
0.560628,-0.001112,-0.018161,0.002047
0.570637,-0.006459,-0.024552,0.002002
0.580678,-0.012839,-0.020269,0.004141
0.590718,-0.009636,-0.017066,0.002029
0.600728,-0.006438,-0.017076,0.002038
0.610768,0.003123,-0.027782,0.000945
0.620778,-0.007521,-0.022407,0.000941
0.630818,-0.011772,-0.019200,0.003081
0.640828,-0.007518,-0.021339,0.000946
0.650868,-0.004323,-0.022418,0.000950
0.660908,0.000994,-0.027785,0.003076
0.670918,-0.012840,-0.020264,0.003073
0.680966,-0.012835,-0.018128,0.003083
0.690975,-0.002183,-0.019221,0.000971
0.701016,-0.000070,-0.026708,0.002010
0.711025,-0.009652,-0.023478,0.003067
0.721066,-0.012835,-0.018128,0.003083
0.721066,-0.012835,-0.018128,0.003083
0.741116,0.003155,-0.016034,0.001001
0.751156,-0.003256,-0.021348,-0.000110
0.761166,-0.007520,-0.024563,0.005204
0.771206,-0.008574,-0.020288,0.005221
0.781216,0.002089,-0.016031,0.000998
0.791256,0.006338,-0.021384,0.000985
0.801296,-0.011785,-0.024544,0.004124
0.811306,-0.007499,-0.017088,0.005240
0.821346,-0.001117,-0.020302,0.003106
0.831356,-0.008592,-0.024540,0.000928
0.841396,-0.006447,-0.020280,0.002023
0.851406,-0.007522,-0.023480,0.002005
0.861446,-0.004319,-0.021355,0.002023
0.871487,-0.008580,-0.021346,0.003080
0.881497,-0.004313,-0.019219,0.002034
0.891537,-0.004330,-0.025627,0.002003
0.901547,-0.011779,-0.022409,0.004134
0.911587,-0.010708,-0.018120,-0.000115
0.921597,-0.000055,-0.021369,0.002035
0.931637,-0.004335,-0.025611,-0.001201
0.941677,-0.006442,-0.020295,0.005227
0.951687,-0.008573,-0.018137,0.002027
0.961727,-0.006444,-0.019212,0.002028
0.971737,-0.005392,-0.023482,0.000942
0.981777,-0.007529,-0.025611,0.000926
0.991787,-0.011773,-0.019195,0.002013
1.001827,-0.006440,-0.018149,0.003101
1.011868,-0.006450,-0.021348,0.002018
1.021877,-0.004320,-0.022428,0.003087
1.031918,-0.006460,-0.025625,0.003066
1.041927,-0.008566,-0.016006,0.003105
1.051968,-0.005386,-0.021346,0.000952
1.061978,-0.006450,-0.021348,0.002018
1.072018,-0.007523,-0.024553,0.003068
1.082058,-0.007510,-0.019209,0.002025
1.092068,-0.007514,-0.021349,0.003083
1.102108,-0.009642,-0.019202,0.002019
1.112118,-0.005389,-0.022414,0.000947
1.122158,-0.008582,-0.022419,0.004143
1.132168,-0.009639,-0.019212,0.004155
1.142208,-0.004307,-0.017083,0.002044
1.152218,-0.007516,-0.021344,0.002015
1.162258,-0.005396,-0.025623,0.002000
1.172299,-0.013900,-0.018125,0.003080
1.182308,-0.011775,-0.020268,0.003076
1.192349,-0.004320,-0.022428,0.003087
1.202358,-0.005386,-0.022424,0.003084
1.212399,-0.010719,-0.024548,0.004127
1.222408,-0.009631,-0.017081,0.005234
1.232449,-0.005377,-0.019221,0.003099
1.232449,-0.005377,-0.019221,0.003099
1.252499,-0.010718,-0.023475,0.003064
1.262539,-0.014969,-0.019189,0.003072
1.272549,-0.006446,-0.020285,0.003091
1.282589,-0.006449,-0.020275,0.000954
1.292599,-0.006450,-0.021348,0.002018
1.302639,-0.010716,-0.022402,0.002001
1.312679,-0.013900,-0.018125,0.003080
1.322689,-0.008582,-0.021341,0.002012
1.332729,-0.008580,-0.020268,0.000949
1.342739,-0.003251,-0.021363,0.003095
1.352780,-0.006449,-0.020275,0.000954
1.352780,-0.006449,-0.020275,0.000954
1.372830,-0.012833,-0.020282,0.000960
1.382870,-0.003257,-0.022421,0.000953
1.392880,-0.008582,-0.021341,0.002012
1.402920,-0.013900,-0.018125,0.003080
1.412930,-0.005379,-0.019216,0.002031
1.422970,-0.003256,-0.022426,0.002021
1.432980,-0.009652,-0.022400,0.000936
1.443020,-0.012845,-0.021327,0.002000
1.453060,-0.008579,-0.020273,0.002017
1.463070,-0.008583,-0.022414,0.003075
1.473110,-0.003262,-0.024562,0.002011
1.483120,-0.010719,-0.023470,0.001996
1.493160,-0.008579,-0.021351,0.004148
1.503170,-0.005384,-0.021351,0.002021
1.513210,-0.006454,-0.023489,0.003076
1.523251,-0.006456,-0.024562,0.004139
1.533260,-0.011776,-0.021341,0.004139
1.543301,-0.011772,-0.019200,0.003081
1.553311,0.001009,-0.022445,0.003101
1.563351,-0.009645,-0.020270,0.002014
1.573361,-0.007520,-0.024563,0.005204
1.583401,-0.011766,-0.017064,0.003091
1.593441,-0.003248,-0.020295,0.003100
1.603451,-0.006452,-0.022421,0.003081
1.613491,-0.007509,-0.019214,0.003093
1.623501,-0.009643,-0.020275,0.003082
1.633541,-0.012839,-0.020269,0.004141
1.643551,-0.007512,-0.019204,0.000957
1.653591,-0.009642,-0.019202,0.002019
1.663632,-0.013915,-0.022387,0.000924
1.673641,-0.010701,-0.018140,0.004157
1.683711,-0.005371,-0.017085,0.003109
1.693720,-0.010710,-0.021344,0.004142
1.703761,-0.005384,-0.021351,0.002021
1.713770,-0.007519,-0.022412,0.002010
1.723811,-0.008580,-0.021346,0.003080
1.733851,-0.002190,-0.022430,0.002024
1.743861,-0.006454,-0.023489,0.003076
1.753901,-0.008586,-0.023482,0.003070
1.763911,-0.010712,-0.021339,0.003074
1.773951,-0.003255,-0.023504,0.004153
1.783961,-0.005387,-0.022419,0.002015
1.794001,-0.010714,-0.023485,0.005200
1.804041,-0.009652,-0.023478,0.003067
1.814051,-0.005383,-0.022434,0.005220
1.824091,-0.005386,-0.022424,0.003084
1.834101,-0.005393,-0.025633,0.004137
1.844142,-0.006452,-0.022421,0.003081
1.854151,-0.012848,-0.022395,0.001995
1.864192,-0.009641,-0.020280,0.004150
1.874232,-0.004314,-0.020292,0.003097
1.884242,-0.002187,-0.022440,0.004161
1.894282,-0.017102,-0.019177,0.001998
1.904292,-0.007505,-0.019224,0.005229
1.914332,-0.005379,-0.019216,0.002031
1.924342,-0.004319,-0.021355,0.002023
1.934382,-0.008585,-0.022409,0.002007
1.944392,-0.008583,-0.022414,0.003075
1.954432,-0.006438,-0.019232,0.006301
1.964472,-0.003253,-0.021358,0.002026
1.974482,-0.004326,-0.024564,0.003076
1.984522,-0.017116,-0.023444,0.000910
1.994532,-0.007519,-0.023490,0.004141
2.004572,-0.006442,-0.020295,0.005227
2.014582,-0.008588,-0.023477,0.002002
2.024622,-0.002196,-0.024566,0.002014
2.034663,-0.011785,-0.023466,0.001993
2.044673,-0.009649,-0.023489,0.005203
2.054713,-0.007511,-0.020282,0.003088
2.064723,-0.002197,-0.025639,0.003077
2.074763,-0.005392,-0.024560,0.003074
2.084773,-0.013909,-0.021329,0.003065
2.094813,-0.006438,-0.019232,0.006301
2.104853,-0.004326,-0.023486,0.000945
2.114863,-0.002190,-0.023508,0.004156
2.124903,-0.009649,-0.023489,0.005203
2.134913,-0.016020,-0.016002,0.007358
2.144953,-0.004304,-0.017093,0.004180
2.154963,0.008462,-0.025678,0.004175
2.165003,-0.006438,-0.019232,0.006301
2.175044,-0.025616,-0.017034,0.006258
2.185053,-0.010682,-0.012816,0.007387
2.195094,0.008473,-0.021401,0.003127
2.205103,0.003144,-0.023540,0.007375
2.215144,-0.032010,-0.015940,0.005177
2.225153,-0.024524,-0.007426,0.006306
2.235194,0.016999,-0.022507,0.005282
2.245234,0.010588,-0.028899,0.006302
2.255244,-0.034133,-0.012730,0.005187
2.265284,-0.030915,-0.005265,0.005231
2.275294,0.029774,-0.026810,0.003160
2.285334,0.024432,-0.033216,0.006320
2.295344,-0.057557,-0.005188,0.007294
2.305384,-0.021321,-0.004223,0.004194
2.315424,0.055325,-0.037578,0.004248
2.325434,-0.003257,-0.025655,0.007347
2.335475,-0.078829,0.011978,0.005180
2.345484,0.013802,-0.021419,0.003141
2.355525,0.055314,-0.042927,0.006359
2.365534,-0.055402,0.004426,0.005209
2.375575,-0.039437,-0.003096,0.004149
2.385615,0.046818,-0.032226,0.007454
2.395625,-0.012809,-0.010668,0.006323
2.405665,-0.029824,0.003270,0.006342
2.415675,0.005283,-0.020338,0.006328
2.425715,-0.004267,-0.005361,0.007440
2.435725,-0.006407,-0.009636,0.009551
2.445765,-0.004281,-0.010701,0.007415
2.455805,-0.011699,0.003191,0.010665
2.465815,-0.006433,-0.018169,0.007374
2.475855,0.006399,-0.005421,0.012811
2.485865,-0.025539,0.010727,0.007458
2.495905,0.003198,-0.003245,0.006403
2.495905,0.003198,-0.003245,0.006403
2.515955,-0.036169,0.020368,0.008542
2.525996,0.020242,-0.010811,0.013892
2.536006,-0.008486,0.011750,0.005373
2.536006,-0.008486,0.011750,0.005373
2.556056,0.010701,0.011677,0.007562
2.566096,-0.008513,-0.001091,0.010653
2.576106,0.004363,0.030911,0.009772
2.576106,0.004363,0.030911,0.009772
2.596186,-0.015896,0.026694,0.011833
2.606196,-0.002108,0.002087,0.011754
2.616236,0.020361,0.035130,0.009836
2.626246,-0.038335,0.005404,0.012738
2.636286,0.013945,0.026603,0.010847
2.646296,-0.005284,0.010646,0.010718
2.656336,-0.011643,0.023482,0.010761
2.666346,-0.008459,0.017049,0.013944
2.676386,-0.015923,0.019239,0.007524
2.676386,-0.015923,0.019239,0.007524
2.686462,0.008622,0.026600,0.015105
2.696471,-0.008486,0.009594,0.009636
2.716521,-0.011691,0.003166,0.016006
2.716521,-0.011691,0.003166,0.016006
2.726562,-0.012747,0.007446,0.014955
2.736572,-0.002030,0.027692,0.017217
2.746612,-0.022358,0.001075,0.013830
2.756652,0.011802,0.019104,0.017214
2.766662,-0.037295,-0.004211,0.012696
2.786712,-0.028780,-0.012823,0.021224
2.786712,-0.028780,-0.012823,0.021224
2.796752,0.013951,0.020119,0.026839
2.806762,-0.007466,-0.005346,0.006363
2.816802,-0.028712,0.002042,0.039454
2.826843,0.011730,-0.005444,0.013893
2.836852,0.007470,-0.006518,0.018149
2.856902,0.003215,-0.006529,0.023479
2.856902,0.003215,-0.006529,0.023479
2.866943,0.006378,-0.017204,0.020232
2.876952,-0.026638,-0.013938,0.029770
2.886993,0.011754,-0.001212,0.022459
2.897033,-0.012817,-0.025725,0.028685
2.907043,-0.002133,-0.015071,0.026628
2.927093,-0.027733,-0.024614,0.029717
2.927093,-0.027733,-0.024614,0.029717
2.937133,0.014935,-0.011942,0.030963
2.947143,-0.012815,-0.025730,0.029753
2.957183,-0.009594,-0.018275,0.031933
2.967223,0.013852,-0.020503,0.035192
2.977233,-0.012811,-0.024668,0.030826
2.997283,-0.022414,-0.031064,0.035042
2.997283,-0.022414,-0.031064,0.035042
3.007323,-0.005345,-0.024707,0.034051
3.017333,0.013879,-0.013047,0.039501
3.027374,-0.019215,-0.030002,0.033988
3.037414,-0.023454,-0.020371,0.032953
3.047424,0.001105,-0.008744,0.041622
3.067474,-0.002108,-0.011917,0.037325
3.067474,-0.002108,-0.011917,0.037325
3.077514,-0.004242,-0.012978,0.037314
3.087524,-0.009592,-0.024744,0.044721
3.097564,-0.006366,-0.014075,0.044781
3.107604,-0.001018,-0.006612,0.043763
3.117614,-0.018106,-0.023678,0.051112
3.137664,0.002196,-0.006673,0.054453
3.137664,0.002196,-0.006673,0.054453
3.147704,-0.020237,-0.019364,0.043649
3.157714,0.004271,-0.026970,0.054363
3.167754,-0.023410,-0.009738,0.042618
3.177795,-0.010595,-0.009860,0.059744
3.187804,-0.012800,-0.030088,0.047892
3.207854,-0.018053,-0.006612,0.055466
3.207854,-0.018053,-0.006612,0.055466
3.217895,-0.034100,-0.027913,0.054253
3.227905,0.011765,-0.018481,0.060833
3.237945,-0.022364,-0.019373,0.046848
3.247985,0.008581,-0.015282,0.064044
3.257995,-0.025587,-0.034364,0.057450
3.278045,0.011757,-0.019534,0.057624
3.278045,0.011757,-0.019534,0.057624
3.288085,-0.014921,-0.037653,0.068146
3.298095,-0.004210,-0.009851,0.053352
3.308135,0.003245,-0.017396,0.062951
3.318176,0.003209,-0.029133,0.060759
3.328185,-0.026643,-0.035469,0.065988
3.348235,-0.009576,-0.025872,0.057535
3.358276,-0.002145,-0.041961,0.067093
3.368285,-0.019150,-0.015126,0.050082
3.378326,0.020304,-0.012086,0.057682
3.388335,-0.024532,-0.047258,0.073415
3.398376,-0.013839,-0.012932,0.034083
3.418426,-0.013860,-0.031178,0.053225
3.418426,-0.013860,-0.031178,0.053225
3.428466,-0.020215,-0.025898,0.070324
3.438476,-0.014897,-0.020495,0.053273
3.448516,0.003233,-0.014126,0.049080
3.458526,-0.025559,-0.037684,0.082004
3.468566,-0.018090,-0.010803,0.038355
3.498656,-0.014863,-0.023836,0.082099
3.498656,-0.014863,-0.023836,0.082099
3.508666,-0.005355,-0.032218,0.041493
3.518707,0.013876,-0.032427,0.072523
3.528716,-0.030873,-0.014015,0.048986
3.538757,-0.003226,-0.051604,0.074522
3.568847,0.027735,-0.028175,0.067241
3.568847,0.027735,-0.028175,0.067241
3.578857,-0.065043,-0.043862,0.060501
3.588897,0.007490,-0.022739,0.060801
3.598907,0.022364,-0.039874,0.060761
3.608947,-0.056449,-0.030098,0.079818
3.628997,0.042556,-0.068840,0.074567
3.639037,-0.041498,-0.009775,0.062864
3.649047,-0.043608,-0.002298,0.063961
3.659087,0.010608,-0.062354,0.079850
3.669097,-0.061756,-0.006455,0.052141
3.679137,-0.036189,-0.021580,0.071368
3.709261,-0.045788,-0.032299,0.086246
3.709261,-0.045788,-0.032299,0.086246
3.719271,0.000047,-0.004459,0.039503
3.729311,-0.059670,-0.040787,0.084031
3.739321,-0.038333,-0.009684,0.041509
3.749361,-0.005274,-0.020622,0.073595
3.769411,-0.022309,-0.008774,0.063990
3.769411,-0.022309,-0.008774,0.063990
3.779451,-0.037278,-0.021500,0.055342
3.789461,-0.019170,-0.033377,0.070291
3.799501,-0.031919,-0.010844,0.056476
3.809511,-0.028755,-0.023674,0.057492
3.819551,-0.012794,-0.035494,0.061753
3.849642,-0.021355,-0.043974,0.054212
3.859651,-0.002118,-0.023735,0.052224
3.869692,-0.032988,-0.008674,0.050074
3.879701,-0.030920,-0.035409,0.056362
3.889742,-0.015959,-0.017273,0.050080
3.909792,-0.019175,-0.024743,0.051104
3.909792,-0.019175,-0.024743,0.051104
3.919832,-0.034092,-0.021475,0.047874
3.929842,0.014952,-0.014149,0.045908
3.939882,-0.011735,-0.033321,0.053221
3.949892,-0.024441,-0.003382,0.054395
3.959932,-0.004219,-0.016283,0.058663
3.979982,-0.007429,-0.017311,0.052240
3.990023,-0.026604,-0.009737,0.044745
4.000032,-0.009611,-0.027917,0.038297
4.010073,0.027765,-0.017496,0.067291
4.020082,-0.050127,-0.034198,0.039224
4.030123,-0.025543,-0.011882,0.045806
4.050173,-0.003219,-0.034391,0.047898
4.060213,0.023526,-0.005709,0.061994
4.070223,-0.039437,-0.022486,0.039309
4.080263,-0.020232,-0.016150,0.041528
4.090273,-0.006416,-0.024688,0.030844
4.100313,0.015995,-0.021623,0.044807
4.130403,-0.006377,-0.019425,0.046892
4.140413,-0.046880,-0.008513,0.025467
4.150453,0.011686,-0.034389,0.037257
4.160463,-0.013827,-0.011894,0.040498
4.170503,-0.054370,-0.012704,0.013676
4.190554,-0.035208,-0.008389,-0.008683
4.190554,-0.035208,-0.008389,-0.008683
4.200594,0.020235,-0.034487,0.052235
4.210604,-0.023461,-0.022502,0.031875
4.220644,-0.027738,-0.013828,0.007335
4.230654,-0.004369,-0.056743,0.032834
4.240694,-0.021334,-0.019265,0.023351
4.260744,-0.024558,-0.039636,0.042473
4.260744,-0.024558,-0.039636,0.042473
4.270784,-0.074649,-0.012547,-0.005607
4.280794,0.009516,-0.047187,0.035054
4.290834,-0.008571,-0.020298,0.007358
4.300844,-0.052274,-0.035219,0.030667
4.310884,-0.038350,-0.010706,0.031890
4.320894,-0.020326,-0.030934,0.006207
4.330934,0.054327,-0.038865,0.051241
4.340975,-0.046938,-0.026642,0.020040
4.350984,-0.018087,-0.012969,0.044754
4.361025,-0.009652,-0.036405,0.026506
4.371034,-0.005374,-0.037542,0.038263
4.381075,-0.006359,-0.004403,0.032008
4.411165,-0.022384,-0.008536,0.013785
4.411165,-0.022384,-0.008536,0.013785
4.421175,-0.016030,-0.034284,0.033976
4.431215,-0.013901,-0.020276,0.006275
4.441225,-0.034103,-0.010670,0.021220
4.451265,-0.049046,-0.011628,0.008355
4.481356,-0.014895,0.010738,-0.002127
4.481356,-0.014895,0.010738,-0.002127
4.491365,-0.024583,-0.049253,0.043496
4.501406,-0.040497,0.001199,-0.000106
4.511415,-0.000065,-0.028880,0.009477
4.521456,-0.007490,-0.040815,0.054265
4.541506,0.020256,-0.042094,0.079973
4.551546,-0.022447,-0.014802,-0.016155
4.561556,0.013742,-0.050314,0.015823
4.571596,-0.018154,-0.025683,0.023329
4.581606,-0.058665,-0.013667,-0.005568
4.591646,0.040442,-0.048421,0.049021
4.611696,-0.038428,-0.036311,0.026427
4.621706,0.021276,-0.019332,0.008513
4.631746,0.013746,-0.049251,0.016896
4.641786,-0.003222,-0.027918,0.034042
4.651796,-0.042714,-0.030842,0.001872
4.661836,-0.002129,-0.023700,0.044747
4.681887,-0.011769,-0.045063,0.052097
4.691920,-0.039464,-0.004088,-0.011879
4.701960,-0.028963,-0.063947,-0.007860
4.712001,-0.028719,-0.024864,0.083124
4.722011,-0.066136,0.002548,-0.041831
4.732050,0.091563,-0.071090,0.065078
4.762111,0.057542,-0.054013,0.090702
4.762111,0.057542,-0.054013,0.090702
4.772150,-0.099195,-0.009133,-0.033432
4.782191,0.020312,-0.018575,0.074743
4.792201,0.029651,-0.060893,-0.016229
4.802240,-0.034096,-0.018231,0.039343
4.832301,-0.012835,-0.036440,0.036111
4.842340,-0.096993,-0.010440,0.015706
4.852382,-0.011831,-0.051329,0.022157
4.862391,-0.002179,-0.028928,0.021221
4.872431,-0.055423,-0.008434,0.014762
4.892482,-0.005378,-0.013830,-0.007558
4.892482,-0.005378,-0.013830,-0.007558
4.902492,-0.009628,-0.040788,0.049986
4.912531,-0.004268,-0.012897,0.020223
4.922572,0.014906,-0.023700,0.033044
4.932582,-0.002167,-0.036505,0.042550
4.942621,-0.010679,-0.012826,0.009524
4.962672,-0.026678,-0.013812,0.003066
4.962672,-0.026678,-0.013812,0.003066
4.972682,0.039462,-0.014219,0.043839
4.982721,0.028774,-0.029170,0.051216
4.992763,-0.040563,-0.028753,0.010434
5.002772,-0.009478,0.005057,0.066227
5.012813,-0.021429,-0.035122,-0.010908
5.032863,-0.047948,0.010886,-0.010763
5.042872,0.035109,-0.050545,0.050064
5.052912,-0.034125,-0.018140,0.020116
5.062953,-0.065028,-0.020211,0.027498
5.072963,0.030877,-0.036628,0.045845
5.083003,-0.006562,-0.047925,-0.023746
5.093012,-0.058538,-0.030228,0.108653
5.103053,-0.056536,-0.001816,-0.029007
5.113063,0.093729,-0.062589,0.072601
5.123102,-0.084252,-0.025407,0.010329
5.133113,-0.054356,-0.012750,0.023290
5.143153,0.040411,-0.064480,0.057490
5.153193,-0.046963,-0.027639,0.005081
5.173244,-0.039555,-0.047964,0.007141
5.183253,0.031958,-0.025906,0.036285
5.193293,-0.056522,-0.027714,0.027486
5.203303,-0.033064,-0.025670,0.030765
5.213344,0.037275,-0.029117,0.034148
5.223384,-0.042694,-0.039522,0.030673
5.243434,-0.004314,-0.038604,0.036125
5.253444,-0.017078,-0.032180,0.041461
5.263483,0.005266,-0.029980,0.012691
5.273493,-0.032048,-0.055676,0.051990
5.283534,-0.016998,0.009576,0.019226
5.293574,0.036116,-0.067600,0.042509
5.323634,0.004218,-0.035417,0.034027
5.323634,0.004218,-0.035417,0.034027
5.333673,0.023329,-0.056793,0.024365
5.343683,-0.030933,-0.028906,0.036097
5.353724,-0.007549,-0.050325,0.032856
5.363765,-0.008636,-0.061026,0.038143
5.383815,-0.018236,-0.060970,0.032776
5.383815,-0.018236,-0.060970,0.032776
5.393825,-0.002239,-0.057823,0.033903
5.403864,-0.053366,-0.041598,0.025293
5.413874,-0.054498,-0.065083,0.024110
5.423915,0.014813,-0.057873,0.032882
5.433955,-0.064111,-0.068216,0.015523
5.454005,-0.016151,-0.071600,0.020981
5.464015,-0.037474,-0.077974,0.028369
5.474054,-0.030015,-0.076915,0.025190
5.484064,-0.032135,-0.073715,0.027336
5.494105,-0.026823,-0.079062,0.025189
5.504146,0.000871,-0.082330,0.019909
5.524196,-0.043852,-0.068312,0.021988
5.534205,0.023270,-0.082458,0.031721
5.544246,-0.024708,-0.084403,0.024101
5.554254,-0.045992,-0.070430,0.019836
5.564296,0.000887,-0.075917,0.018871
5.574336,-0.016204,-0.090823,0.020890
5.594386,-0.035315,-0.062985,0.018832
5.604396,-0.026776,-0.058746,0.019944
5.614435,0.022196,-0.077044,0.016788
5.624445,-0.025695,-0.049102,0.012515
5.634486,-0.054456,-0.051210,0.026313
5.644526,-0.003322,-0.045916,0.000842
5.664577,-0.045904,-0.040549,0.024250
5.674586,-0.037342,-0.016991,0.005157
5.684635,-0.002240,-0.051355,0.021115
5.694645,-0.053336,-0.019070,0.004035
5.704686,-0.019254,-0.034187,0.015808
5.714694,0.018063,-0.033276,0.023393
5.734776,0.008492,-0.027925,0.027665
5.744785,-0.013910,-0.025636,0.010522
5.754826,-0.017052,-0.009642,0.018067
5.764836,0.001015,-0.027851,0.016962
5.774876,0.002115,-0.016112,0.018089
5.784885,-0.002111,-0.004366,0.021338
5.804966,0.014898,-0.021518,0.023440
5.814975,-0.021319,-0.005306,0.007393
5.825016,0.006390,-0.014010,0.022384
5.835026,-0.045824,-0.000944,0.005210
5.845066,0.000001,-0.005390,0.010657
5.855075,0.011712,-0.018314,0.025583
5.885166,0.009544,-0.018191,0.001009
5.895206,-0.013871,-0.006368,0.001000
5.905217,-0.041567,-0.009557,0.016931
5.915257,-0.042607,0.009755,-0.001140
5.925266,0.038263,-0.036414,-0.004339
5.945347,-0.078825,0.014119,0.004122
5.955356,-0.000035,-0.013893,0.002071
5.965396,0.081996,-0.031282,0.009693
5.975407,-0.057566,-0.010543,0.010473
5.985447,-0.040495,0.003345,-0.002233
5.995456,0.074536,-0.033414,0.013935
6.015538,-0.023482,-0.007354,-0.009714
6.025546,0.046842,-0.031223,0.021346
6.035587,-0.024529,0.000130,-0.010749
6.045597,0.002072,-0.022438,0.000968
6.055638,0.006373,-0.015032,0.012765
6.065647,-0.057544,0.009854,-0.011863
6.095737,-0.041538,0.014048,-0.006458
6.105777,0.014885,-0.016093,0.005306
6.115788,-0.035182,0.000150,-0.007574
6.125828,-0.026644,0.002238,-0.003268
6.135837,0.003164,-0.008523,-0.006441
6.155919,0.000026,0.003148,0.011765
6.165927,-0.029895,-0.008355,-0.019350
6.175968,-0.004280,-0.008550,0.004221
6.185978,-0.007461,0.002180,-0.004283
6.196019,-0.031999,-0.007356,-0.003328
6.206027,0.019184,-0.004369,0.007510
6.226078,-0.009608,-0.006381,0.001011
6.246158,-0.016007,-0.003116,-0.007536
6.256169,0.024502,-0.001122,-0.005279
6.266209,0.014890,-0.008567,-0.005340
6.266209,0.014890,-0.008567,-0.005340
6.286259,0.005281,-0.007407,-0.018180
6.316348,-0.022391,-0.003131,-0.000077
6.326359,0.003155,-0.007415,-0.014981
6.336399,0.009528,-0.018140,-0.009673
6.346408,-0.002139,0.003261,-0.010673
6.356449,-0.005317,0.008596,-0.007452
6.376500,-0.002150,-0.002088,-0.008562
6.386539,0.004220,-0.011726,-0.007521
6.386539,0.004220,-0.011726,-0.007521
6.396550,0.010601,-0.014935,-0.010723
6.406590,-0.034131,-0.000886,-0.015054
6.416599,0.017011,-0.007465,-0.013875
6.436650,-0.035188,0.009862,-0.028892
6.466740,-0.034167,-0.008311,-0.025771
6.466740,-0.034167,-0.008311,-0.025771
6.476780,0.031886,-0.037527,0.009525
6.486789,-0.073547,0.009956,-0.022589
6.496830,-0.000042,-0.009561,-0.010727
6.506840,0.045749,-0.024671,-0.008536
6.536931,-0.005402,-0.021296,-0.009730
6.536931,-0.005402,-0.021296,-0.009730
6.546971,-0.020287,-0.000896,-0.022493
6.556980,0.029746,-0.031031,-0.007542
6.567020,-0.011803,-0.027718,-0.002300
6.577031,-0.039477,-0.010511,-0.008705
6.607121,-0.011809,-0.030932,-0.000179
6.607121,-0.011809,-0.030932,-0.000179
6.617161,0.011611,-0.039536,-0.003360
6.627170,0.009453,-0.045912,-0.008737
6.637210,-0.007596,-0.048022,-0.002385
6.647221,0.020147,-0.033131,-0.008647
6.677311,0.013759,-0.041750,0.011591
6.677311,0.013759,-0.041750,0.011591
6.687372,0.014789,-0.051334,0.005139
6.697381,-0.003358,-0.059804,0.001844
6.707422,0.008457,-0.027814,0.004165
6.717431,0.009432,-0.055538,-0.005578
6.747522,-0.005427,-0.043839,0.014733
6.747522,-0.005427,-0.043839,0.014733
6.757562,0.041462,-0.055819,0.031897
6.767572,-0.001138,-0.036392,0.017984
6.777612,-0.003220,-0.024694,0.029784
6.787622,0.010567,-0.046067,0.023312
6.817712,-0.022428,-0.037482,0.037148
6.827753,0.035142,-0.044188,0.060776
6.837762,-0.001118,-0.040765,0.039328
6.847803,-0.018147,-0.041864,0.057435
6.857812,0.003254,-0.028196,0.088537
6.877862,0.013903,-0.037898,0.100271
6.887903,-0.007388,-0.023905,0.091733
6.897943,-0.028667,-0.015333,0.100260
6.907953,0.010743,-0.029390,0.109917
6.917993,-0.046798,-0.017390,0.095928
6.928003,-0.026482,-0.006893,0.120602
6.958093,-0.024308,0.002661,0.131336
6.958093,-0.024308,0.002661,0.131336
6.968133,-0.009408,-0.003785,0.129210
6.978143,0.019304,-0.030602,0.134503
6.988183,0.015071,-0.016680,0.129217
6.998193,-0.025381,0.011304,0.111078
7.028284,0.039619,-0.017949,0.154916
7.028284,0.039619,-0.017949,0.154916
7.038324,0.029067,-0.006400,0.204079
7.048334,-0.034884,0.018593,0.157019
7.058374,0.047027,-0.010265,0.105835
7.068384,0.188638,-0.052293,0.088936
7.108514,-0.165164,0.021971,-0.016376
7.108514,-0.165164,0.021971,-0.016376
7.118524,-0.117059,0.013819,0.093745
7.128564,0.039811,-0.011015,0.269248
7.138574,0.309571,-0.065034,0.441720
7.168664,-0.191373,0.021754,0.273037
7.168664,-0.191373,0.021754,0.273037
7.178674,0.051366,-0.026677,0.185885
7.188714,-0.038287,-0.007675,0.068224
7.198755,-0.036216,-0.013953,0.039358
7.208764,0.020898,-0.093541,-0.107206
7.228815,0.010528,-0.030863,-0.030027
7.228815,0.010528,-0.030863,-0.030027
7.238855,-0.024578,-0.014795,-0.016161
7.248865,0.023328,-0.038476,-0.009731
7.258905,-0.007567,-0.033031,-0.010859
7.268945,0.085966,-0.087461,-0.082429
7.278955,-0.203464,0.021878,0.029451
7.309045,-0.050977,-0.015488,0.148267
7.319055,0.113089,-0.055666,0.176304
7.329095,-0.017014,-0.035616,0.090583
7.339136,0.024335,-0.055531,-0.017287
7.349145,-0.011822,-0.034120,-0.003399
7.379236,-0.002258,-0.039451,-0.011943
7.389245,-0.005461,-0.041576,-0.011962
7.399286,0.018008,-0.030948,-0.017188
7.409326,0.005203,-0.040553,-0.009791
7.419336,-0.015035,-0.038372,-0.005564
7.439386,0.038250,-0.041759,-0.003296
7.449426,-0.004377,-0.035172,-0.011929
7.459436,0.014834,-0.026701,-0.009699
7.469476,0.024431,-0.026747,-0.006468
7.479516,-0.006501,-0.028727,-0.018313
7.489526,-0.010735,-0.025575,-0.004424
7.519617,0.002077,-0.010605,-0.017136
7.519617,0.002077,-0.010605,-0.017136
7.529626,0.059596,-0.018227,-0.025559
7.539667,-0.046924,-0.018068,0.013672
7.549707,0.002040,-0.018030,-0.027853
7.559717,0.027662,-0.016094,-0.003204
7.589807,-0.004301,-0.009562,-0.007535
7.599817,-0.009621,0.005507,-0.028842
7.609857,-0.021333,-0.003109,-0.005415
7.619897,-0.008568,-0.004148,-0.020339
7.629907,-0.014969,-0.001956,-0.027824
7.659997,-0.007474,-0.005320,0.001022
7.659997,-0.007474,-0.005320,0.001022
7.670007,-0.027750,-0.001940,-0.022518
7.680047,-0.003238,-0.004170,-0.019257
7.690076,-0.002143,-0.005343,0.002105
7.700116,-0.019229,-0.000874,-0.027831
7.730207,-0.017077,-0.006332,-0.004350
7.740217,-0.008575,-0.010591,-0.012892
7.750257,0.012754,-0.012857,-0.000026
7.760267,0.005253,-0.015935,-0.021425
7.770307,0.003156,-0.019269,0.007395
7.790357,0.003123,-0.026704,-0.001186
7.800397,0.010583,-0.024572,-0.005428
7.810407,0.023343,-0.027751,-0.019295
7.820447,0.001006,-0.022435,0.000965
7.830457,0.004143,-0.028716,-0.027898
7.840497,0.015901,-0.028866,-0.004365
7.860547,0.019071,-0.033097,-0.015059
7.860547,0.019071,-0.033097,-0.015059
7.870588,-0.007533,-0.022367,-0.007604
7.880597,0.007302,-0.036147,-0.039675
7.890638,-0.027823,-0.031872,-0.016251
7.900647,-0.010798,-0.033992,-0.031169
7.910688,-0.010802,-0.036133,-0.030111
7.930738,0.030738,-0.040494,-0.039631
7.940778,-0.003345,-0.036147,-0.032227
7.950788,-0.042787,-0.038150,-0.033413
7.960828,0.015805,-0.045796,-0.037560
7.970838,-0.002309,-0.043596,-0.038668
7.980878,-0.000164,-0.041492,-0.033311
8.010969,0.014740,-0.046870,-0.035432
8.010969,0.014740,-0.046870,-0.035432
8.020978,-0.007634,-0.040360,-0.041872
8.031019,-0.015112,-0.041358,-0.051512
8.041028,0.001924,-0.052133,-0.042970
8.051069,-0.001230,-0.032870,-0.049297
8.081159,-0.003381,-0.037109,-0.054664
8.081159,-0.003381,-0.037109,-0.054664
8.091169,-0.007625,-0.031771,-0.051446
8.101209,-0.027873,-0.029559,-0.053628
8.111219,-0.016158,-0.030645,-0.057873
8.121259,-0.009779,-0.037078,-0.056818
8.151349,-0.015078,-0.025309,-0.057845
8.161359,-0.051306,-0.015524,-0.069649
8.171399,-0.007589,-0.010341,-0.066299
8.181409,0.000915,-0.015683,-0.071642
8.191449,-0.030023,-0.026262,-0.071778
8.221540,-0.000194,-0.024163,-0.084504
8.221540,-0.000194,-0.024163,-0.084504
8.231550,-0.039581,-0.006948,-0.084531
8.241590,0.006217,-0.016693,-0.087655
8.251600,0.000854,-0.026261,-0.093056
8.261640,-0.034297,-0.018672,-0.093118
8.291730,-0.020458,-0.017588,-0.105893
8.291730,-0.020458,-0.017588,-0.105893
8.301740,0.029599,-0.030566,-0.105816
8.311780,-0.003448,-0.027204,-0.116573
8.321790,0.026404,-0.021946,-0.119671
8.331830,0.040237,-0.034847,-0.111148
8.351880,0.037022,-0.031547,-0.129301
8.351880,0.037022,-0.031547,-0.129301
8.361921,0.031697,-0.031545,-0.126111
8.371930,-0.016264,-0.028155,-0.132637
8.381971,0.029558,-0.027205,-0.138915
8.391980,0.050845,-0.032569,-0.148495
8.402021,0.003990,-0.026080,-0.133639
8.422071,0.016755,-0.028196,-0.146432
8.422071,0.016755,-0.028196,-0.146432
8.432111,0.009282,-0.029210,-0.152867
8.442121,0.029544,-0.021775,-0.158117
8.452161,0.018867,-0.028142,-0.159245
8.462171,0.006087,-0.022746,-0.162459
8.472211,0.054044,-0.023965,-0.163401
8.502302,0.043391,-0.020716,-0.165551
8.512311,0.012443,-0.032338,-0.171033
8.522352,0.026323,-0.022766,-0.172017
8.532361,0.032695,-0.027023,-0.179497
8.542402,0.009248,-0.028025,-0.177430
8.562452,0.041191,-0.033418,-0.188050
8.572461,-0.001441,-0.031124,-0.192430
8.582502,0.037999,-0.029116,-0.192311
8.592542,0.034795,-0.029085,-0.196593
8.602552,0.023030,-0.040764,-0.203090
8.612592,0.022008,-0.023664,-0.205148
8.632642,0.016645,-0.031081,-0.213744
8.642652,0.009191,-0.029999,-0.211623
8.652692,0.064570,-0.041896,-0.217935
8.662732,-0.005758,-0.028787,-0.231954
8.672742,0.018755,-0.025632,-0.238281
8.682782,0.033661,-0.028864,-0.242528
8.712877,0.026155,-0.031927,-0.267132
8.712877,0.026155,-0.031927,-0.267132
8.722918,0.014443,-0.022232,-0.276733
8.732958,0.020814,-0.031875,-0.274624
8.742968,0.032521,-0.034013,-0.282079
8.753008,0.014415,-0.021068,-0.297023
8.783068,0.014368,-0.029536,-0.313087
8.783068,0.014368,-0.029536,-0.313087
8.793108,0.030351,-0.027422,-0.319442
8.803148,0.031418,-0.025274,-0.322633
8.813158,0.026088,-0.025252,-0.323716
8.823198,0.049536,-0.022099,-0.328977
8.853258,0.054838,-0.024186,-0.342859
8.853258,0.054838,-0.024186,-0.342859
8.863298,0.054834,-0.026327,-0.341801
8.873339,0.066536,-0.030606,-0.348198
8.883348,0.067594,-0.031663,-0.351405
8.893389,0.050557,-0.024117,-0.354621
8.923449,0.077162,-0.033769,-0.364207
8.923449,0.077162,-0.033769,-0.364207
8.933489,0.080352,-0.039144,-0.358883
8.943529,0.079255,-0.041196,-0.375987
8.953539,0.087790,-0.041249,-0.370623
8.963579,0.086746,-0.033775,-0.369522
8.983629,0.089892,-0.044394,-0.384518
8.993639,0.068592,-0.041146,-0.379221
9.003679,0.121829,-0.050844,-0.397279
9.013689,0.062143,-0.053879,-0.392117
9.023729,0.103704,-0.046458,-0.409059
9.033770,0.138868,-0.048703,-0.410041
9.053820,0.107896,-0.067790,-0.417694
9.053820,0.107896,-0.067790,-0.417694
9.063829,0.133508,-0.052897,-0.422894
9.073870,0.077029,-0.047353,-0.427296
9.083880,0.112177,-0.056011,-0.427240
9.093920,0.131353,-0.049585,-0.444248
9.103960,0.080197,-0.050502,-0.441189
9.124010,0.115323,-0.055860,-0.461414
9.134020,0.064181,-0.049281,-0.462592
9.144060,0.091879,-0.047174,-0.475324
9.154070,0.121687,-0.059013,-0.476366
9.164110,0.080131,-0.055680,-0.475397
9.174150,0.088654,-0.047078,-0.493492
9.194201,0.085472,-0.046040,-0.484950
9.204210,0.117402,-0.054621,-0.498790
9.214251,0.101451,-0.046067,-0.490247
9.224260,0.135514,-0.055738,-0.500881
9.234301,0.119539,-0.058956,-0.487054
9.244341,0.114204,-0.053533,-0.500930
9.264391,0.146182,-0.055803,-0.494443
9.274401,0.113144,-0.055701,-0.493465
9.284441,0.126999,-0.055746,-0.493427
9.294451,0.162168,-0.058006,-0.491204
9.304491,0.118496,-0.051482,-0.485953
9.314531,0.118512,-0.047225,-0.482728
9.334581,0.145134,-0.055855,-0.482696
9.344591,0.108914,-0.049330,-0.482765
9.354631,0.151549,-0.049479,-0.480511
9.364641,0.151547,-0.048395,-0.483711
9.374682,0.137705,-0.048391,-0.475203
9.384691,0.122780,-0.047254,-0.479512
9.414782,0.137684,-0.052632,-0.481633
9.414782,0.137684,-0.052632,-0.481633
9.424822,0.083368,-0.039656,-0.478517
9.434832,0.157932,-0.051615,-0.484777
9.444872,0.122753,-0.054710,-0.483820
9.454882,0.101459,-0.046092,-0.484907
9.464922,0.128111,-0.042970,-0.485886
9.474962,0.106792,-0.041812,-0.490213
9.484972,0.106778,-0.042845,-0.497695
9.495012,0.120642,-0.046149,-0.485922
9.505022,0.107836,-0.042823,-0.503033
9.515062,0.106780,-0.037465,-0.506215
9.525072,0.118509,-0.040752,-0.496584
9.545153,0.137682,-0.038623,-0.508272
9.555162,0.109988,-0.036432,-0.500860
9.565203,0.124868,-0.043890,-0.514741
9.575213,0.140881,-0.038638,-0.507195
9.585253,0.111056,-0.032134,-0.507246
9.595263,0.152578,-0.042902,-0.516797
9.615343,0.119579,-0.032151,-0.509359
9.625353,0.146190,-0.038595,-0.519998
9.635393,0.135570,-0.030062,-0.510374
9.645403,0.149407,-0.033281,-0.516760
9.655443,0.125975,-0.030021,-0.512536
9.665453,0.120666,-0.020372,-0.516778
9.685567,0.116393,-0.026791,-0.511479
9.695576,0.124928,-0.020381,-0.517835
9.705617,0.171809,-0.029107,-0.511337
9.715626,0.129182,-0.028984,-0.508250
9.725667,0.157949,-0.029047,-0.514580
9.735676,0.137720,-0.026896,-0.503943
9.765767,0.099356,-0.024630,-0.505107
9.765767,0.099356,-0.024630,-0.505107
9.785817,0.116400,-0.026811,-0.507206
9.795857,0.069514,-0.020226,-0.512646
9.805867,0.148337,-0.034340,-0.517836
9.815907,0.091871,-0.030993,-0.509430
9.825917,0.068431,-0.021245,-0.522268
9.835957,0.101462,-0.025634,-0.520061
9.845997,0.095068,-0.023462,-0.523273
9.856007,0.104638,-0.028808,-0.528613
9.866048,0.090785,-0.030924,-0.523320
9.876057,0.067351,-0.023352,-0.527622
9.896107,0.099300,-0.030916,-0.530774
9.906148,0.083309,-0.028698,-0.537217
9.916188,0.080128,-0.017968,-0.545721
9.926198,0.085427,-0.030816,-0.542562
9.926198,0.085427,-0.030816,-0.542562
9.946248,0.098206,-0.025437,-0.559593
9.966298,0.054512,-0.022076,-0.562902
9.976338,0.096061,-0.031852,-0.556424
9.986378,0.089653,-0.035020,-0.559662
9.996388,0.031081,-0.018821,-0.557611
9.996388,0.031081,-0.018821,-0.557611
10.016438,0.078991,-0.033898,-0.563959
10.036488,0.117385,-0.023328,-0.567007
10.036488,0.117385,-0.023328,-0.567007
10.056569,0.072641,-0.018936,-0.561769
10.066579,0.092905,-0.019047,-0.552100
10.066579,0.092905,-0.019047,-0.552100
10.076619,0.135540,-0.017040,-0.554109
10.086629,0.116353,-0.020201,-0.549904
10.116719,0.132375,-0.010667,-0.544473
10.116719,0.132375,-0.010667,-0.544473
10.126759,0.128111,-0.009575,-0.546616
10.136769,0.161112,-0.022488,-0.548723
10.146809,0.129208,0.000017,-0.543363
10.156819,0.152625,-0.006426,-0.551875
10.196950,0.148357,-0.012860,-0.543371
10.196950,0.148357,-0.012860,-0.543371
10.206959,0.143034,-0.009629,-0.545507
10.217000,0.147308,-0.003215,-0.549738
10.227009,0.176077,-0.009746,-0.543280
10.237050,0.161144,-0.008584,-0.552930
10.247059,0.149424,-0.010713,-0.546563
10.257100,0.145154,-0.009600,-0.552979
10.267110,0.167533,-0.010741,-0.552922
10.277150,0.165354,-0.025665,-0.557272
10.287190,0.150468,-0.013879,-0.555121
10.297200,0.151502,-0.019167,-0.566893
10.317250,0.138712,-0.018047,-0.569060
10.317250,0.138712,-0.018047,-0.569060
10.327290,0.145092,-0.023408,-0.569067
10.337300,0.122694,-0.026513,-0.574485
10.347340,0.132293,-0.023336,-0.575512
10.357381,0.138677,-0.026555,-0.576578
10.367390,0.112035,-0.025401,-0.576646
10.387440,0.119485,-0.027546,-0.579840
10.387440,0.119485,-0.027546,-0.579840
10.397481,0.113073,-0.032854,-0.582019
10.407490,0.106672,-0.032813,-0.586310
10.417531,0.106678,-0.032834,-0.582037
10.427571,0.122648,-0.037142,-0.585218
10.437581,0.093892,-0.028495,-0.587393
10.457631,0.097060,-0.037029,-0.591697
10.457631,0.097060,-0.037029,-0.591697
10.467671,0.092797,-0.038093,-0.589578
10.477681,0.077875,-0.034810,-0.596013
10.487721,0.100266,-0.034913,-0.589542
10.497761,0.113049,-0.041398,-0.582060
10.507771,0.066149,-0.034767,-0.597113
10.537861,0.082136,-0.038048,-0.591743
10.537861,0.082136,-0.038048,-0.591743
10.547871,0.100246,-0.045623,-0.583183
10.557912,0.116237,-0.045685,-0.581003
10.567952,0.097068,-0.039210,-0.582094
10.577962,0.102356,-0.054178,-0.582150
10.598012,0.109854,-0.043549,-0.576738
10.598012,0.109854,-0.043549,-0.576738
10.608052,0.107696,-0.053153,-0.576789
10.618062,0.087475,-0.046715,-0.569337
10.628102,0.145000,-0.055430,-0.572424
10.638112,0.109830,-0.057477,-0.567190
10.648152,0.083205,-0.046681,-0.573621
10.678242,0.093879,-0.046766,-0.562910
10.688282,0.156724,-0.058702,-0.565998
10.698322,0.134343,-0.059708,-0.563928
10.708332,0.113050,-0.051095,-0.563946
10.718372,0.140742,-0.057588,-0.564968
10.738422,0.124766,-0.052186,-0.567123
10.738422,0.124766,-0.052186,-0.567123
10.748463,0.165252,-0.058735,-0.564906
10.758473,0.139665,-0.058627,-0.570317
10.768513,0.115170,-0.054296,-0.566092
10.778523,0.174846,-0.053386,-0.573400
10.788563,0.171642,-0.056585,-0.572356
10.818653,0.170578,-0.052279,-0.578748
10.828663,0.147097,-0.065023,-0.577804
10.838703,0.133273,-0.048919,-0.586312
10.848713,0.159931,-0.046895,-0.580888
10.858753,0.137524,-0.054282,-0.584189
10.878803,0.158837,-0.055420,-0.584136
10.888844,0.106638,-0.044555,-0.587433
10.898853,0.109815,-0.052041,-0.587460
10.908894,0.143911,-0.055356,-0.587381
10.918903,0.113052,-0.040330,-0.582055
10.928944,0.143935,-0.047891,-0.585210
10.948994,0.130087,-0.045715,-0.584169
10.948994,0.130087,-0.045715,-0.584169
10.959034,0.115198,-0.039304,-0.574566
10.969044,0.143938,-0.052208,-0.575616
10.979084,0.152491,-0.044780,-0.571285
10.989094,0.137601,-0.034058,-0.570207
10.999134,0.155705,-0.046997,-0.556331
11.019184,0.124829,-0.035150,-0.556360
11.029224,0.166389,-0.041728,-0.548799
11.039234,0.153585,-0.043797,-0.554185
11.049275,0.124856,-0.029851,-0.547790
11.059284,0.141901,-0.035266,-0.543495
11.069325,0.148271,-0.045981,-0.540324
11.099415,0.168536,-0.040707,-0.540243
11.099415,0.168536,-0.040707,-0.540243
11.109425,0.105680,-0.035199,-0.532913
11.119465,0.135534,-0.029946,-0.534942
11.129475,0.144065,-0.032145,-0.527451
11.139515,0.129128,-0.033124,-0.536043
11.179615,0.101436,-0.029860,-0.529695
11.179615,0.101436,-0.029860,-0.529695
11.189655,0.153641,-0.032125,-0.538107
11.199665,0.129153,-0.027815,-0.529608
11.209705,0.118475,-0.033104,-0.532868
11.239796,0.133366,-0.044905,-0.531814
11.239796,0.133366,-0.044905,-0.531814
11.249806,0.097153,-0.031937,-0.539330
11.259846,0.111030,-0.028819,-0.530732
11.269856,0.149354,-0.042806,-0.534965
11.279896,0.100348,-0.035171,-0.535064
11.299946,0.106729,-0.039459,-0.536135
11.299946,0.106729,-0.039459,-0.536135
11.309986,0.098218,-0.035169,-0.534002
11.319996,0.121645,-0.043799,-0.531841
11.330036,0.113125,-0.043792,-0.527592
11.340046,0.105697,-0.034176,-0.523294
11.350086,0.123795,-0.040633,-0.525411
11.360096,0.107831,-0.037422,-0.515826
11.370136,0.103592,-0.026714,-0.518992
11.380177,0.144053,-0.046109,-0.510426
11.390186,0.121738,-0.026859,-0.500783
11.400227,0.121727,-0.027902,-0.506129
11.410236,0.134517,-0.033328,-0.496505
11.420277,0.096188,-0.022560,-0.489083
11.430286,0.126036,-0.018365,-0.493253
11.440327,0.144165,-0.023844,-0.476138
11.450337,0.093024,-0.015115,-0.480510
11.460377,0.132456,-0.018467,-0.476144
11.470417,0.122898,-0.013157,-0.463327
11.480427,0.119681,-0.016315,-0.470829
11.490467,0.133555,-0.016420,-0.457972
11.500477,0.105872,-0.004568,-0.461197
11.510517,0.119702,-0.018536,-0.452679
11.520527,0.141003,-0.023945,-0.452646
11.530567,0.097344,-0.009920,-0.452700
11.540608,0.121839,-0.020715,-0.445206
11.550617,0.119695,-0.022823,-0.449495
11.560658,0.097315,-0.023834,-0.446357
11.580708,0.110079,-0.031336,-0.449562
11.590717,0.084501,-0.029101,-0.452827
11.600758,0.093016,-0.033401,-0.452823
11.610798,0.118573,-0.042032,-0.451725
11.620808,0.094051,-0.039771,-0.461396
11.630848,0.086579,-0.048326,-0.453980
11.640858,0.106809,-0.051560,-0.461417
11.650898,0.091895,-0.048303,-0.462511
11.660908,0.102528,-0.057954,-0.461459
11.670948,0.113156,-0.065434,-0.467874
11.680988,0.090816,-0.052566,-0.463602
11.691016,0.100367,-0.063241,-0.471104
11.701056,0.130189,-0.070813,-0.471057
11.721106,0.115275,-0.067556,-0.472151
11.721106,0.115275,-0.067556,-0.472151
11.731116,0.117398,-0.065382,-0.481749
11.741157,0.093954,-0.071779,-0.467957
11.751197,0.124839,-0.069652,-0.487090
11.761207,0.105686,-0.065379,-0.474304
11.771247,0.109935,-0.066425,-0.481775
11.791297,0.099285,-0.061031,-0.486051
11.801307,0.113147,-0.060018,-0.483872
11.811347,0.095018,-0.063158,-0.485005
11.821357,0.073704,-0.059865,-0.489321
11.831397,0.097165,-0.056752,-0.486037
11.841437,0.099315,-0.053586,-0.479607
11.861487,0.116369,-0.053646,-0.478492
11.871497,0.106787,-0.049338,-0.479566
11.881537,0.111055,-0.048289,-0.478481
11.891547,0.122779,-0.048327,-0.478449
11.901587,0.103625,-0.037591,-0.477383
11.911628,0.134536,-0.040930,-0.469836
11.941688,0.115350,-0.041941,-0.468825
11.951728,0.120690,-0.034453,-0.475184
11.961738,0.117501,-0.035545,-0.467721
11.971778,0.108960,-0.039779,-0.469901
11.981818,0.120683,-0.037661,-0.474131
12.001868,0.100428,-0.037580,-0.477392
12.011878,0.095099,-0.038641,-0.475275
12.021918,0.102557,-0.038655,-0.477391
12.031928,0.104673,-0.042924,-0.479542
12.041968,0.101484,-0.042939,-0.474209
12.052009,0.102549,-0.040786,-0.478469
12.072059,0.078017,-0.046031,-0.481766
12.082068,0.108954,-0.037608,-0.477368
12.092109,0.113196,-0.046170,-0.476329
12.102118,0.081221,-0.047140,-0.475353
12.112159,0.089764,-0.037526,-0.481694
12.122199,0.105707,-0.054674,-0.479594
12.152259,0.110015,-0.044060,-0.468850
12.152259,0.110015,-0.044060,-0.468850
12.162299,0.100403,-0.046119,-0.478500
12.172309,0.082297,-0.045022,-0.472136
12.182349,0.096143,-0.047193,-0.474244
12.192359,0.080179,-0.041827,-0.468922
12.212440,0.134504,-0.053756,-0.467760
12.222449,0.089788,-0.037601,-0.465671
12.232490,0.090844,-0.037575,-0.472077
12.242499,0.122792,-0.048368,-0.469903
12.252540,0.104677,-0.046168,-0.471011
12.262549,0.095093,-0.040777,-0.475285
12.282630,0.117474,-0.044079,-0.469898
12.292640,0.120674,-0.046250,-0.464558
12.302680,0.091945,-0.026919,-0.467751
12.312690,0.123890,-0.037702,-0.467713
12.322730,0.145203,-0.044224,-0.458071
12.332740,0.122852,-0.028092,-0.466603
12.352820,0.129271,-0.022804,-0.460151
12.362830,0.138859,-0.023898,-0.461197
12.372870,0.120730,-0.025960,-0.464462
12.382880,0.109043,-0.013112,-0.463365
12.392920,0.126066,-0.023846,-0.463369
12.402930,0.122896,-0.013151,-0.464395
12.423011,0.130341,-0.020666,-0.461206
12.433021,0.133552,-0.009947,-0.471828
12.443061,0.113329,-0.008889,-0.455856
12.453071,0.147405,-0.013216,-0.467533
12.463111,0.097356,-0.000263,-0.462269
12.473121,0.153823,-0.011157,-0.455755
12.493201,0.097380,0.006124,-0.457965
12.503211,0.142108,-0.007915,-0.455772
12.513251,0.149586,-0.001531,-0.455721
12.523261,0.104829,0.000750,-0.455834
12.533301,0.145283,-0.015395,-0.456867
12.543311,0.114408,-0.003548,-0.456896
12.553351,0.106946,-0.001368,-0.461179
12.563361,0.137808,-0.018555,-0.461175
12.573401,0.095226,-0.000262,-0.461206
12.583442,0.099458,-0.009872,-0.464445
12.593451,0.109044,-0.013117,-0.462297
12.603492,0.072804,-0.012989,-0.464533
12.613502,0.076018,-0.007665,-0.463431
12.633552,0.084504,-0.021570,-0.464541
12.643592,0.089845,-0.019472,-0.460244
12.653632,0.088781,-0.017317,-0.463441
12.663642,0.099424,-0.021614,-0.465568
12.673682,0.099411,-0.029114,-0.460263
12.683692,0.081307,-0.020482,-0.466681
12.713801,0.098349,-0.022658,-0.469849
12.723842,0.106908,-0.019558,-0.453788
12.733850,0.072783,-0.019386,-0.466700
12.743892,0.073854,-0.020483,-0.461361
12.753901,0.099437,-0.021654,-0.457023
12.763941,0.097286,-0.023743,-0.465584
12.773951,0.071727,-0.020491,-0.458162
12.783992,0.104739,-0.024820,-0.468774
12.794032,0.089833,-0.021588,-0.464527
12.804041,0.079194,-0.019458,-0.456000
12.814082,0.102591,-0.030147,-0.469873
12.824092,0.089832,-0.024817,-0.459201
12.844142,0.120724,-0.030252,-0.460209
12.854182,0.088795,-0.016285,-0.455959
12.864221,0.103688,-0.020555,-0.466620
12.874231,0.128205,-0.029264,-0.448434
12.884272,0.060008,-0.014005,-0.466710
12.894282,0.128198,-0.027087,-0.456969
12.904322,0.132477,-0.026074,-0.448407
12.914332,0.085595,-0.017343,-0.455973
12.924373,0.140968,-0.037838,-0.450575
12.934382,0.110088,-0.027054,-0.451678
12.944422,0.116483,-0.027074,-0.451660
12.954463,0.146306,-0.034652,-0.450546
12.964473,0.102639,-0.023836,-0.449547
12.984522,0.132428,-0.040999,-0.453819
12.994563,0.081310,-0.026955,-0.452825
13.004573,0.114328,-0.038845,-0.445313
13.014612,0.119636,-0.037719,-0.461316
13.024653,0.086646,-0.029149,-0.444275
13.034663,0.143081,-0.044248,-0.451668
13.064753,0.149490,-0.040007,-0.449494
13.064753,0.149490,-0.040007,-0.449494
13.074763,0.137777,-0.034614,-0.452705
13.084802,0.117533,-0.034569,-0.448488
13.094844,0.127112,-0.038866,-0.449550
13.104854,0.121796,-0.033504,-0.450608
13.124903,0.146301,-0.034637,-0.453750
13.134944,0.120742,-0.031385,-0.446328
13.144954,0.101560,-0.027021,-0.452770
13.154993,0.151643,-0.028231,-0.456910
13.165034,0.118633,-0.023908,-0.445230
13.175044,0.100518,-0.018474,-0.452732
13.205134,0.131408,-0.024982,-0.452677
13.205134,0.131408,-0.024982,-0.452677
13.215144,0.114357,-0.026010,-0.449525
13.225183,0.073897,-0.007693,-0.455959
13.235225,0.115417,-0.027071,-0.451663
13.245234,0.133520,-0.029235,-0.458033
13.265283,0.087728,-0.019511,-0.450636
13.275325,0.106879,-0.025930,-0.461295
13.285334,0.117544,-0.028141,-0.452731
13.295374,0.116477,-0.028132,-0.453802
13.305385,0.105814,-0.027004,-0.459167
13.315425,0.120720,-0.033471,-0.457020
13.335474,0.094103,-0.022700,-0.458111
13.345515,0.093012,-0.030157,-0.461354
13.355525,0.107924,-0.032331,-0.463459
13.365564,0.103696,-0.024887,-0.453822
13.375575,0.124974,-0.034532,-0.461286
13.385615,0.106856,-0.035551,-0.459205
13.395656,0.099412,-0.030193,-0.458132
13.405664,0.111128,-0.032361,-0.459178
13.415706,0.115379,-0.035569,-0.461318
13.425715,0.107934,-0.033439,-0.454919
13.435755,0.102616,-0.026994,-0.459176
13.445765,0.100462,-0.037687,-0.454960
13.455806,0.123909,-0.036685,-0.457026
13.475855,0.131387,-0.034609,-0.449518
13.485896,0.137762,-0.039954,-0.452731
13.495906,0.089860,-0.019518,-0.450630
13.495906,0.089860,-0.019518,-0.450630
13.515956,0.122876,-0.028168,-0.450580
13.525996,0.101574,-0.025988,-0.445287
13.546045,0.117556,-0.026025,-0.448448
13.556086,0.095194,-0.020628,-0.445279
13.566096,0.125000,-0.030306,-0.451652
13.576135,0.125021,-0.030372,-0.437766
13.586146,0.093034,-0.028071,-0.450662
13.586146,0.093034,-0.028071,-0.450662
13.606227,0.122868,-0.032450,-0.448464
13.626277,0.109031,-0.029232,-0.442077
13.626277,0.109031,-0.029232,-0.442077
13.646326,0.094122,-0.022760,-0.445293
13.656336,0.130334,-0.031417,-0.446302
13.666377,0.128202,-0.033561,-0.443113
13.676387,0.109024,-0.028133,-0.448481
13.686426,0.119694,-0.024974,-0.446301
13.686426,0.119694,-0.024974,-0.446301
13.706496,0.125000,-0.034613,-0.444195
13.716536,0.100489,-0.031309,-0.448520
13.716536,0.100489,-0.031309,-0.448520
13.726546,0.109032,-0.028159,-0.443140
13.736586,0.131378,-0.039968,-0.445271
13.746596,0.104748,-0.033464,-0.447450
13.766677,0.119663,-0.036727,-0.445288
13.776686,0.099424,-0.034540,-0.442129
13.786727,0.126074,-0.034642,-0.438851
13.806777,0.116481,-0.038918,-0.431420
13.806777,0.116481,-0.038918,-0.431420
13.816787,0.137788,-0.041113,-0.433508
13.846877,0.147418,-0.034802,-0.419565
13.846877,0.147418,-0.034802,-0.419565
13.856917,0.149542,-0.036940,-0.420638
13.866927,0.106948,-0.026147,-0.415363
13.876967,0.143167,-0.031595,-0.417425
13.886977,0.137837,-0.034806,-0.412114
13.907058,0.141034,-0.036968,-0.408911
13.907058,0.141034,-0.036968,-0.408911
13.917067,0.111207,-0.031536,-0.407899
13.927108,0.118688,-0.027314,-0.402518
13.937117,0.117608,-0.029421,-0.407872
13.947158,0.077125,-0.027189,-0.400495
13.957167,0.111251,-0.021981,-0.396104
13.977248,0.104833,-0.031581,-0.394030
13.987258,0.104859,-0.024121,-0.390790
13.997298,0.118705,-0.025214,-0.395030
14.007308,0.118696,-0.029496,-0.392914
14.017348,0.082498,-0.018729,-0.386554
14.027358,0.121937,-0.016716,-0.387504
14.047408,0.097421,-0.020939,-0.381182
14.057448,0.129403,-0.021068,-0.375753
14.067488,0.104882,-0.020963,-0.381161
14.077498,0.103811,-0.026329,-0.374781
14.087539,0.133664,-0.023228,-0.373615
14.097548,0.110231,-0.018890,-0.371523
14.127639,0.093175,-0.025288,-0.361986
14.127639,0.093175,-0.025288,-0.361986
14.137679,0.100626,-0.026359,-0.366244
14.147689,0.121917,-0.039274,-0.359837
14.157729,0.112332,-0.038190,-0.356653
14.167739,0.083581,-0.030636,-0.353493
14.187789,0.111250,-0.047829,-0.350293
14.187789,0.111250,-0.047829,-0.350293
14.197829,0.100624,-0.042510,-0.338547
14.207869,0.087816,-0.046720,-0.342875
14.217879,0.078235,-0.045646,-0.337555
14.227919,0.088907,-0.042492,-0.334306
14.237929,0.081448,-0.042473,-0.333258
14.247969,0.091064,-0.042580,-0.317209
14.257979,0.110223,-0.049025,-0.322528
14.268019,0.079358,-0.038290,-0.312948
14.278060,0.091072,-0.047990,-0.302280
14.288070,0.101736,-0.042660,-0.307566
14.298110,0.087890,-0.045875,-0.295869
14.308120,0.090023,-0.046965,-0.292664
14.318160,0.082576,-0.041596,-0.293727
14.328170,0.092172,-0.044871,-0.285170
14.338210,0.076165,-0.050144,-0.288444
14.348250,0.051684,-0.042624,-0.280999
14.358260,0.085784,-0.045949,-0.278784
14.368300,0.071938,-0.047012,-0.270282
14.378310,0.054884,-0.048030,-0.269265
14.388350,0.080464,-0.047040,-0.270258
14.398360,0.057028,-0.048077,-0.260714
14.408400,0.063425,-0.047025,-0.261759
14.418410,0.060227,-0.048092,-0.259637
14.428450,0.047447,-0.048081,-0.253263
14.438491,0.054905,-0.048095,-0.255379
14.448500,0.066679,-0.034291,-0.246735
14.468551,0.029370,-0.038457,-0.243653
14.468551,0.029370,-0.038457,-0.243653
14.478591,0.044308,-0.031019,-0.245713
14.488601,0.063436,-0.056758,-0.236168
14.498641,0.043211,-0.044919,-0.241509
14.508681,0.036838,-0.036350,-0.242555
14.518691,0.044279,-0.049240,-0.231913
14.548781,0.021905,-0.047036,-0.230896
14.558791,0.043227,-0.040663,-0.238284
14.568831,0.043236,-0.046078,-0.222287
14.578872,0.042163,-0.046050,-0.227631
14.588881,0.035798,-0.037506,-0.223335
14.608931,0.052854,-0.038649,-0.219020
14.608931,0.052854,-0.038649,-0.219020
14.618972,0.040064,-0.042915,-0.211599
14.628981,0.027286,-0.037523,-0.213745
14.639022,0.039029,-0.034393,-0.206220
14.649062,0.050733,-0.044063,-0.201961
14.659072,0.033725,-0.030145,-0.197669
14.689162,0.053973,-0.033434,-0.193356
14.699211,0.040154,-0.024886,-0.184808
14.709251,0.045484,-0.023831,-0.185856
14.719291,0.056141,-0.026016,-0.182632
14.729301,0.047619,-0.024926,-0.181583
14.739341,0.045513,-0.020693,-0.171954
14.749351,0.045516,-0.018547,-0.174081
14.759392,0.063642,-0.022938,-0.161233
14.769401,0.036992,-0.020680,-0.168773
14.779442,0.057261,-0.018651,-0.160162
14.789451,0.060458,-0.018661,-0.160153
14.799492,0.033813,-0.019653,-0.158095
14.809532,0.053036,-0.007988,-0.153714
14.819542,0.040213,-0.018610,-0.157004
14.829582,0.049820,-0.016536,-0.150559
14.839592,0.041317,-0.012272,-0.143084
14.849632,0.045562,-0.016537,-0.147366
14.859642,0.062604,-0.024099,-0.140945
14.869682,0.046635,-0.019795,-0.136696
14.899772,0.038119,-0.018725,-0.131373
14.899772,0.038119,-0.018725,-0.131373
14.909782,0.018974,-0.006936,-0.127098
14.919822,0.054093,-0.028429,-0.122830
14.929832,0.041344,-0.013436,-0.122794
14.939872,0.023213,-0.020878,-0.117538
14.959923,0.043476,-0.019906,-0.111068
14.959923,0.043476,-0.019906,-0.111068
14.969963,0.014673,-0.029424,-0.111193
14.979973,0.037065,-0.026298,-0.110048
14.990013,0.036018,-0.024199,-0.101495
15.000023,0.014675,-0.036971,-0.096274
15.010063,0.026390,-0.034827,-0.105845
15.030113,0.011477,-0.033726,-0.102676
15.040153,0.006145,-0.035855,-0.100565
15.050163,-0.005601,-0.047594,-0.094243
15.060203,0.005123,-0.026296,-0.088772
15.070213,-0.003441,-0.036922,-0.094187
15.080253,-0.015222,-0.053935,-0.101777
15.110344,-0.016251,-0.044356,-0.094258
15.120353,-0.004475,-0.034863,-0.077089
15.130394,0.012498,-0.060519,-0.083572
15.140403,0.007219,-0.043425,-0.081370
15.150444,-0.003465,-0.049772,-0.086770
15.170494,-0.000239,-0.046640,-0.073928
15.180534,0.005079,-0.046622,-0.081391
15.190544,0.001877,-0.048752,-0.080341
15.200584,0.011475,-0.047725,-0.078174
15.210594,0.015735,-0.052036,-0.072841
15.220634,0.007207,-0.046618,-0.083521
15.240684,0.024283,-0.051057,-0.059994
15.240684,0.024283,-0.051057,-0.059994
15.250725,0.016845,-0.043562,-0.058911
15.260734,0.007231,-0.041309,-0.077087
15.270775,0.004035,-0.050996,-0.058982
15.280784,0.028557,-0.046794,-0.061031
15.290825,0.007288,-0.038257,-0.045026
15.320915,0.028573,-0.046844,-0.050349
15.330925,0.000907,-0.033970,-0.043955
15.340965,0.012614,-0.038264,-0.047148
15.350975,0.048839,-0.046961,-0.039611
15.361015,0.036082,-0.031943,-0.044916
15.381065,0.020089,-0.034027,-0.044970
15.391105,0.025454,-0.030926,-0.026781
15.401115,0.022296,-0.015960,-0.027787
15.411155,0.023296,-0.031912,-0.042815
15.421165,0.006278,-0.026582,-0.028950
15.431205,0.015876,-0.023400,-0.031045
15.451256,0.021211,-0.026666,-0.021432
15.461296,0.018024,-0.012687,-0.039534
15.471306,0.037198,-0.021333,-0.030976
15.481346,0.037222,-0.020331,-0.017085
15.491356,0.018020,-0.014828,-0.038476
15.501396,0.008442,-0.020227,-0.019300
15.521446,0.016991,-0.013863,-0.016042
15.531456,0.009487,-0.021243,-0.031052
15.541496,0.009462,-0.021162,-0.048144
15.551536,0.005217,-0.024438,-0.030011
15.561546,0.015892,-0.010524,-0.043803
15.571586,0.004154,-0.017981,-0.039597
15.591636,0.014795,-0.021195,-0.044924
15.601646,0.025492,-0.022429,-0.017127
15.611686,0.030793,-0.019126,-0.041666
15.621727,0.002017,-0.022266,-0.035351
15.631736,0.024400,-0.020188,-0.038484
15.641777,0.032921,-0.024508,-0.034208
15.661827,0.000977,-0.013725,-0.034245
15.671837,0.023298,-0.027610,-0.049204
15.681877,0.040376,-0.026668,-0.034197
15.691946,0.006262,-0.031917,-0.030044
15.701956,0.015895,-0.010534,-0.041666
15.711996,0.015835,-0.031887,-0.042836
15.732046,0.019069,-0.025551,-0.029978
15.742056,0.008396,-0.026544,-0.038558
15.752096,0.004126,-0.021124,-0.052431
15.762137,0.015887,-0.022357,-0.025699
15.772146,0.043562,-0.026643,-0.041666
15.782187,0.010568,-0.018063,-0.026762
15.802237,0.035021,-0.038418,-0.029995
15.802237,0.035021,-0.038418,-0.029995
15.812246,0.017995,-0.029829,-0.027865
15.822287,0.007344,-0.020123,-0.040667
15.832327,-0.004390,-0.027590,-0.034325
15.842337,0.008379,-0.023259,-0.055634
15.852377,0.008383,-0.034045,-0.033252
15.872427,0.015881,-0.016952,-0.039560
15.882437,0.022225,-0.037278,-0.036434
15.892477,0.029685,-0.030839,-0.048133
15.902487,0.025465,-0.027728,-0.025698
15.912527,0.017995,-0.028751,-0.029996
15.922567,0.008417,-0.023380,-0.029997
15.942618,0.023345,-0.030990,-0.011832
15.952627,0.027559,-0.024384,-0.056654
15.962668,-0.001214,-0.035076,-0.034352
15.972677,-0.005485,-0.035037,-0.039705
15.982718,0.029679,-0.030819,-0.052406
15.992758,-0.007626,-0.045770,-0.026943
16.012808,0.026484,-0.041589,-0.031102
16.022818,0.033905,-0.042565,-0.055655
16.032858,0.010508,-0.038338,-0.030062
16.042868,0.021130,-0.041491,-0.048207
16.052908,0.034999,-0.032962,-0.054538
16.062948,0.037132,-0.045900,-0.030024
16.072958,0.036003,-0.054314,-0.056773
16.082998,0.015873,-0.024468,-0.031050
16.093008,0.024303,-0.041425,-0.064222
16.103048,0.035010,-0.037304,-0.039604
16.113058,0.033943,-0.035145,-0.043869
16.123098,0.027516,-0.032867,-0.069513
16.133139,0.011575,-0.029728,-0.044974
16.153189,0.045640,-0.027556,-0.075847
16.163199,0.008344,-0.042537,-0.043975
16.173239,0.033893,-0.037139,-0.073789
16.183249,0.013724,-0.024405,-0.042806
16.193289,0.008348,-0.026392,-0.070604
16.203299,0.025403,-0.025379,-0.070552
16.223379,0.013638,-0.030595,-0.088769
16.233389,0.023321,-0.010447,-0.065146
16.243429,0.030675,-0.046760,-0.069570
16.253439,0.031781,-0.026423,-0.080153
16.263479,-0.003341,-0.014617,-0.068444
16.273489,0.043517,-0.029730,-0.066250
16.293570,0.035045,-0.020182,-0.047000
16.303579,0.031780,-0.029652,-0.074827
16.313620,0.004129,-0.008208,-0.073734
16.323629,0.028610,-0.009260,-0.093968
16.333670,0.030738,-0.024339,-0.068396
16.343680,0.015851,-0.011470,-0.069444
16.363760,0.020100,-0.017902,-0.067327
16.373770,0.033953,-0.009322,-0.084339
16.383810,0.009447,-0.013575,-0.071608
16.393820,0.027597,-0.006194,-0.064046
16.403860,0.036085,-0.011485,-0.080071
16.413870,0.026528,-0.011566,-0.056597
16.433951,0.032815,-0.039251,-0.078075
16.433951,0.032815,-0.039251,-0.078075
16.443960,-0.004344,-0.004040,-0.045964
16.454001,0.038210,-0.011472,-0.084338
16.464010,0.026472,-0.023237,-0.072675
16.474051,0.009505,-0.001909,-0.054462
16.484060,0.065928,-0.009431,-0.083183
16.504141,0.048862,-0.019028,-0.074730
16.514151,0.065951,-0.015965,-0.056509
16.524191,0.038199,-0.022207,-0.072638
16.534201,0.056358,-0.008393,-0.070386
16.544241,0.027617,-0.003026,-0.056553
16.554251,0.060598,-0.015872,-0.072546
16.574301,0.044655,-0.006265,-0.060794
16.584341,0.063813,-0.009475,-0.072507
16.594381,0.026561,-0.001974,-0.052278
16.604391,0.036116,-0.002967,-0.074689
16.614431,0.045741,0.000129,-0.058625
16.624441,0.052134,-0.004193,-0.052218
16.644491,0.043621,0.001179,-0.053285
16.644491,0.043621,0.001179,-0.053285
16.654532,0.033998,-0.004079,-0.064018
16.664572,0.028665,-0.008359,-0.058712
16.674582,0.040367,-0.015867,-0.059783
16.684622,0.039315,-0.012675,-0.056567
16.694652,0.038253,-0.014838,-0.050170
16.714703,0.009437,-0.024315,-0.058841
16.724742,0.015864,-0.014745,-0.054505
16.734782,0.030740,-0.030807,-0.055608
16.744793,0.010463,-0.037119,-0.062103
16.754833,0.010482,-0.029638,-0.063136
16.764842,0.014726,-0.042518,-0.052503
16.794932,0.047737,-0.048997,-0.059920
16.804973,0.022155,-0.056445,-0.048275
16.814983,0.005099,-0.053151,-0.055784
16.825024,0.043464,-0.057572,-0.050358
16.835033,0.026366,-0.068145,-0.061138
16.855084,0.037021,-0.075711,-0.049394
16.865123,0.046635,-0.071501,-0.042938
16.875163,0.040219,-0.075722,-0.049385
16.885174,0.093491,-0.086609,-0.041812
16.895214,0.073237,-0.091919,-0.034415
16.905223,0.122225,-0.098420,-0.048197
16.925274,0.097678,-0.076688,-0.110119
16.935313,0.084843,-0.079734,-0.134738
16.945323,-0.010717,-0.073030,0.093628
16.955364,-0.002430,-0.063679,-0.082560
16.965405,-0.016218,-0.071388,-0.023883
16.975413,-0.034159,-0.016956,-0.004447
16.995464,-0.016050,0.004561,-0.050229
17.005505,0.019137,0.017323,-0.062890
17.015514,-0.011774,0.022819,-0.074700
17.025555,-0.001079,0.042057,-0.085261
17.035595,-0.079835,0.057037,-0.037338
17.045604,0.028772,0.050549,-0.094752
17.055645,-0.056334,0.079413,-0.042509
17.065655,-0.056366,0.095669,-0.092638
17.075695,-0.000912,0.107236,-0.092430
17.085704,-0.095588,0.137138,-0.027389
17.095745,0.009618,0.102221,-0.168268
17.105786,-0.112640,0.140422,-0.032762
17.115794,-0.068867,0.145428,0.007975
17.135845,-0.102975,0.166011,-0.030477
17.145886,-0.023156,0.165043,-0.106105
17.155894,-0.046559,0.170363,-0.085848
17.165936,-0.067874,0.156427,-0.060336
17.175976,-0.014616,0.167126,-0.100730
17.185985,-0.062481,0.174519,-0.050621
17.196025,0.001394,0.162691,-0.077206
17.206036,-0.020931,0.179820,-0.070778
17.216076,0.017453,0.168875,-0.040813
17.226085,0.036604,0.161377,-0.049341
17.226085,0.036604,0.161377,-0.049341
17.246166,0.022702,0.152955,-0.065443
17.256175,-0.003976,0.131602,-0.048526
17.276226,-0.042437,0.115859,-0.080753
17.276226,-0.042437,0.115859,-0.080753
17.296275,0.053426,0.073721,-0.043300
17.306317,-0.011600,0.075051,-0.054156
17.306317,-0.011600,0.075051,-0.054156
17.316326,0.002156,0.054852,-0.083055
17.336406,-0.067132,0.026031,-0.038518
17.356457,-0.047013,-0.022097,-0.037622
17.356457,-0.047013,-0.022097,-0.037622
17.366466,-0.008714,-0.017692,-0.091974
17.376507,0.041327,-0.048931,-0.069551
17.386517,-0.079084,-0.052923,-0.046402
17.406596,0.015630,-0.105564,-0.045321
17.416607,-0.080361,-0.105035,-0.091517
17.416607,-0.080361,-0.105035,-0.091517
17.426647,-0.059021,-0.110565,-0.065847
17.436656,-0.013161,-0.104347,-0.057145
17.456707,-0.117643,-0.122213,-0.046836
17.456707,-0.117643,-0.122213,-0.046836
17.466746,-0.023987,-0.144717,-0.094754
17.476787,-0.045231,-0.135178,-0.064857
17.506847,-0.079286,-0.128766,-0.042489
17.506847,-0.079286,-0.128766,-0.042489
17.516888,-0.020803,-0.147916,-0.097965
17.526898,-0.059060,-0.138448,-0.041410
17.536938,-0.031370,-0.122317,-0.083986
17.546977,-0.054781,-0.121279,-0.061613
17.577037,-0.044077,-0.105300,-0.060440
17.577037,-0.044077,-0.105300,-0.060440
17.587078,-0.032354,-0.101025,-0.068933
17.607127,-0.018425,-0.076528,-0.064506
17.607127,-0.018425,-0.076528,-0.064506
17.617137,-0.020552,-0.075459,-0.063438
17.647227,-0.004459,-0.045684,-0.047230
17.647227,-0.004459,-0.045684,-0.047230
17.657269,-0.002347,-0.046709,-0.057911
17.667278,0.000870,-0.033853,-0.068523
17.677319,-0.010805,-0.030738,-0.041836
17.687327,0.013684,-0.025356,-0.067380
17.717442,0.030794,-0.009433,-0.058711
17.717442,0.030794,-0.009433,-0.058711
17.727482,-0.006449,0.001271,-0.038467
17.737492,0.023335,-0.009414,-0.057664
17.747532,0.016981,0.001250,-0.050153
17.757542,0.015919,0.002317,-0.049083
17.777622,-0.002194,-0.000874,-0.039534
17.777622,-0.002194,-0.000874,-0.039534
17.787632,0.013769,-0.000850,-0.055513
17.797673,0.011636,-0.006223,-0.046999
17.807682,-0.003285,-0.007253,-0.044908
17.817723,-0.011798,0.002427,-0.053432
17.827732,-0.018192,0.001370,-0.051318
17.857823,-0.011825,-0.010413,-0.048152
17.857823,-0.011825,-0.010413,-0.048152
17.867863,-0.032070,-0.006056,-0.052460
17.877873,-0.008664,-0.017849,-0.058860
17.887913,-0.025720,-0.023168,-0.051455
17.897923,-0.040616,-0.016738,-0.046125
17.918003,-0.015050,-0.027551,-0.035423
17.928013,-0.010812,-0.028562,-0.050371
17.938053,-0.030010,-0.037073,-0.044055
17.948063,-0.020412,-0.037124,-0.039756
17.958103,-0.006588,-0.045688,-0.045099
17.968113,-0.041727,-0.041367,-0.031289
17.998204,-0.032164,-0.046693,-0.040902
17.998204,-0.032164,-0.046693,-0.040902
18.008244,-0.037496,-0.050972,-0.035596
18.018254,-0.031096,-0.046701,-0.039831
18.028294,0.005118,-0.056440,-0.037640
18.038304,-0.035347,-0.045650,-0.033428
18.058354,-0.002331,-0.053222,-0.035509
18.058354,-0.002331,-0.053222,-0.035509
18.068394,-0.006571,-0.043587,-0.037612
18.078434,-0.026849,-0.050972,-0.043044
18.088444,-0.010851,-0.052137,-0.033391
18.098484,0.004057,-0.051067,-0.044027
18.108494,-0.018292,-0.042481,-0.037639
18.138584,-0.003364,-0.041472,-0.035457
18.138584,-0.003364,-0.041472,-0.035457
18.148625,-0.004396,-0.031882,-0.030073
18.158634,0.036076,-0.039464,-0.035338
18.168675,0.019029,-0.041580,-0.027918
18.178684,0.006282,-0.033056,-0.015094
18.218815,0.031867,-0.025618,-0.024602
18.218815,0.031867,-0.025618,-0.024602
18.228825,0.018055,-0.013861,-0.017107
18.238865,0.011663,-0.012772,-0.017120
18.248875,0.032980,-0.016076,-0.010667
18.268925,0.010628,-0.006402,-0.008547
18.268925,0.010628,-0.006402,-0.008547
18.278965,0.034079,-0.002181,-0.013803
18.289006,0.009579,0.001087,-0.010651
18.299015,0.017043,-0.000025,-0.006362
18.309056,0.010671,0.011773,-0.012733
18.319065,0.012793,0.006412,-0.009548
18.349156,0.011744,0.013901,-0.011652
18.349156,0.011744,0.013901,-0.011652
18.359165,0.009624,0.013872,-0.004181
18.369206,-0.009542,0.022493,-0.007397
18.379246,0.017076,0.010644,-0.004175
18.389256,0.016017,0.013856,-0.005231
18.419346,-0.002113,0.009644,-0.005301
18.419346,-0.002113,0.009644,-0.005301
18.429356,0.009627,0.009555,0.005413
18.439396,-0.018103,0.008628,-0.005350
18.449436,-0.011706,0.001060,0.009587
18.459446,0.006399,0.002120,-0.001040
18.479496,-0.014931,-0.010692,0.012727
18.489537,-0.006406,-0.007485,0.006356
18.499546,-0.011721,-0.009664,0.019150
18.509587,0.003163,-0.020367,0.013799
18.519627,-0.019165,-0.008618,0.028748
18.529637,-0.025596,-0.014944,0.015882
18.559727,-0.012819,-0.024642,0.025485
18.559727,-0.012819,-0.024642,0.025485
18.569737,-0.005340,-0.025800,0.039387
18.579777,-0.027722,-0.023571,0.035063
18.589817,-0.000051,-0.037539,0.034005
18.599827,-0.012798,-0.029015,0.046829
18.619877,-0.005357,-0.039749,0.053208
18.629917,0.002076,-0.047228,0.048920
18.639927,-0.001115,-0.048316,0.055315
18.649967,-0.006405,-0.043035,0.071349
18.660008,0.007378,-0.059008,0.052084
18.670017,-0.022392,-0.053754,0.090482
18.700141,-0.018075,-0.055018,0.128944
18.700141,-0.018075,-0.055018,0.128944
18.710151,-0.015909,-0.056209,0.153513
18.720191,-0.005189,-0.062904,0.206921
18.730201,-0.011516,-0.057711,0.242180
18.740241,-0.009382,-0.057728,0.244322
18.770331,-0.024036,-0.053139,0.413081
18.770331,-0.024036,-0.053139,0.413081
18.780341,-0.026052,-0.059960,0.501705
18.790381,0.009106,-0.064341,0.500713
18.800391,0.008133,-0.058167,0.550945
18.810431,0.017849,-0.056437,0.630028
18.830481,-0.016202,-0.052191,0.658796
18.830481,-0.016202,-0.052191,0.658796
18.840522,-0.018307,-0.050114,0.672687
18.850531,-0.052460,-0.057393,0.654398
18.860572,0.016890,-0.053539,0.695200
18.870581,-0.064052,-0.051307,0.730238
18.880622,-0.028913,-0.053476,0.713234
18.900672,-0.047098,-0.059668,0.680040
18.910712,0.012582,-0.049076,0.657822
18.920722,-0.108895,-0.055220,0.685231
18.930762,0.002998,-0.047992,0.661005
18.940772,-0.066353,-0.057227,0.628724
18.950812,-0.064221,-0.059390,0.632992
18.970862,-0.079170,-0.056021,0.608398
18.980903,-0.083441,-0.059216,0.609439
18.990912,-0.085613,-0.050463,0.566746
19.000953,-0.087802,-0.063201,0.551725
19.010962,-0.097471,-0.062927,0.500425
19.021003,-0.064485,-0.053169,0.447152
19.041053,-0.099882,-0.057727,0.306028
19.041053,-0.099882,-0.057727,0.306028
19.051093,-0.041417,-0.047734,0.185529
19.061103,-0.078719,-0.053003,0.196083
19.071143,-0.089178,-0.042826,0.309333
19.081153,-0.063532,-0.052814,0.371313
19.091193,-0.098527,-0.048949,0.481260
19.111243,-0.072098,-0.047274,0.334996
19.121283,-0.086061,-0.046890,0.263389
19.131293,-0.049908,-0.037048,0.189829
19.141333,-0.072265,-0.038129,0.207922
19.151343,-0.061624,-0.035957,0.193006
19.161383,-0.030689,-0.027524,0.195268
19.181434,-0.055216,-0.036018,0.201569
19.191474,-0.030703,-0.030712,0.192048
19.201484,-0.043476,-0.031799,0.204826
19.211524,-0.026426,-0.025382,0.191017
19.221534,-0.056365,-0.055141,0.181180
19.231574,0.113333,0.021118,0.199101
19.251624,0.048326,-0.025011,0.287365
19.251624,0.048326,-0.025011,0.287365
19.261664,-0.139281,-0.018931,0.259101
19.271674,0.035619,-0.002609,0.301322
19.281714,-0.133927,-0.022258,0.281533
19.291724,-0.045415,-0.017322,0.306370
19.301764,-0.032646,-0.004372,0.269079
19.341864,-0.033846,-0.010406,0.191067
19.341864,-0.033846,-0.010406,0.191067
19.351905,-0.061567,-0.014593,0.192039
19.361914,-0.031702,-0.000756,0.181505
19.371955,-0.043421,-0.008275,0.198529
19.392005,-0.026357,-0.002980,0.196464
19.392005,-0.026357,-0.002980,0.196464
19.402015,-0.046644,-0.014647,0.193148
19.412055,-0.039158,-0.006132,0.194278
19.422095,-0.045532,0.000286,0.196427
19.432105,-0.027439,-0.008311,0.195368
19.442145,-0.063670,-0.007136,0.197410
19.462195,-0.034889,-0.004010,0.194299
19.472205,-0.058342,-0.009304,0.200619
19.482245,-0.049810,-0.007196,0.200652
19.492286,-0.033802,-0.001929,0.204994
19.502295,-0.049810,-0.007196,0.200652
19.512336,-0.037030,-0.012592,0.203867
19.532386,-0.053017,-0.010384,0.199560
19.542395,-0.046624,-0.009322,0.196378
19.552436,-0.053033,-0.017875,0.202729
19.562476,-0.057288,-0.014658,0.202733
19.572486,-0.032787,-0.013619,0.192123
19.582526,-0.072241,-0.024200,0.198374
19.602576,-0.055168,-0.016780,0.198456
19.602576,-0.055168,-0.016780,0.198456
19.612586,-0.082917,-0.025188,0.188725
19.622626,-0.034936,-0.020019,0.192087
19.632666,-0.055200,-0.025298,0.193074
19.642676,-0.064783,-0.020985,0.190932
19.652717,-0.031733,-0.018972,0.194237
19.672767,-0.061594,-0.027433,0.197319
19.682776,-0.004028,-0.022276,0.196435
19.692817,-0.036022,-0.031803,0.200574
19.702880,-0.041343,-0.031811,0.205900
19.712890,-0.006157,-0.024430,0.201760
19.722930,-0.025341,-0.028680,0.210232
19.742980,0.007705,-0.027729,0.212465
19.752990,-0.038165,-0.040375,0.208005
19.763030,-0.037094,-0.039321,0.210150
19.773040,-0.016832,-0.035115,0.210225
19.783080,-0.043492,-0.043597,0.215453
19.793120,-0.021103,-0.041539,0.216592
19.813170,-0.036025,-0.044720,0.221877
19.813170,-0.036025,-0.044720,0.221877
19.823180,-0.012569,-0.040514,0.219826
19.833220,-0.040300,-0.047900,0.219714
19.843230,-0.020035,-0.043704,0.221926
19.853271,-0.032838,-0.049007,0.222934
19.863311,-0.034975,-0.051136,0.222918
19.883361,-0.005098,-0.042725,0.230518
19.893371,-0.028565,-0.049051,0.229355
19.903411,-0.038159,-0.054400,0.237849
19.913421,-0.010417,-0.039509,0.231587
19.923461,-0.039223,-0.050095,0.231457
19.933501,-0.024270,-0.042703,0.239011
19.963561,-0.030681,-0.045861,0.233637
19.973601,-0.055195,-0.050088,0.241027
19.983611,-0.036006,-0.044781,0.234696
19.993651,-0.037060,-0.045891,0.244301
20.003692,-0.055190,-0.050103,0.244231
20.023742,-0.034914,-0.044865,0.251790
20.023742,-0.034914,-0.044865,0.251790
20.033751,-0.046673,-0.052257,0.242108
20.043792,-0.021061,-0.044905,0.250760
20.053802,-0.034914,-0.041636,0.246464
20.063842,-0.020012,-0.051316,0.250732
20.073882,-0.048778,-0.048024,0.251736
20.093932,-0.022121,-0.041688,0.248635
20.103942,-0.070115,-0.053274,0.247380
20.113982,-0.043449,-0.048041,0.251751
20.123992,-0.078631,-0.046818,0.243114
20.134032,-0.051963,-0.042669,0.250685
20.144042,-0.074367,-0.047910,0.245257
20.164123,-0.062626,-0.041541,0.245319
20.174132,-0.077566,-0.046817,0.242049
20.184173,-0.097810,-0.048927,0.250528
20.194182,-0.091407,-0.043588,0.246298
20.204223,-0.071143,-0.040465,0.249574
20.214232,-0.106331,-0.049993,0.255841
20.234313,-0.089251,-0.039364,0.254870
20.244323,-0.060461,-0.039498,0.263495
20.254363,-0.088173,-0.040481,0.264482
20.264373,-0.062576,-0.036312,0.268845
20.274413,-0.064709,-0.038457,0.272034
20.284423,-0.081754,-0.035192,0.270934
20.304503,-0.089217,-0.043777,0.284759
20.314513,-0.070018,-0.035271,0.279512
20.324553,-0.044436,-0.037515,0.284913
20.334563,-0.103078,-0.049102,0.291105
20.344604,-0.060419,-0.035322,0.283811
20.354613,-0.059346,-0.033195,0.284892
20.374694,-0.072142,-0.038518,0.290172
20.384704,-0.078529,-0.036367,0.291233
20.394744,-0.058284,-0.038573,0.292347
20.404754,-0.073202,-0.038535,0.294442
20.414794,-0.080681,-0.044913,0.293323
20.424804,-0.057205,-0.037539,0.298764
20.444884,-0.062545,-0.045028,0.305123
20.444884,-0.062545,-0.045028,0.305123
20.454894,-0.071093,-0.043856,0.289082
20.464934,-0.048674,-0.037582,0.301992
20.474944,-0.048696,-0.043975,0.298757
20.484984,-0.099878,-0.052352,0.298576
20.494994,-0.038011,-0.033325,0.297769
20.505034,-0.049767,-0.043956,0.295550
20.515044,-0.083894,-0.053472,0.298615
20.525084,-0.046565,-0.045060,0.300894
20.535125,-0.039083,-0.037608,0.300950
20.545135,-0.076423,-0.052453,0.303981
20.555175,-0.051894,-0.043964,0.298748
20.565185,-0.052944,-0.040777,0.303033
20.585235,-0.072149,-0.049268,0.305077
20.595275,-0.057199,-0.041867,0.310494
20.605315,-0.050789,-0.034397,0.307342
20.615325,-0.058267,-0.041858,0.309423
20.625365,-0.067881,-0.050376,0.310424
20.635375,-0.082785,-0.047149,0.315739
20.655425,-0.075332,-0.049304,0.314682
20.665465,-0.072117,-0.042906,0.314721
20.675506,-0.058259,-0.042962,0.316895
20.685515,-0.088106,-0.047157,0.321066
20.695575,-0.072112,-0.044000,0.320057
20.705584,-0.063584,-0.042954,0.319017
20.725634,-0.067853,-0.045076,0.318995
20.735675,-0.087029,-0.046117,0.326415
20.745715,-0.099841,-0.054624,0.327407
20.755725,-0.074249,-0.048285,0.324303
20.765765,-0.088098,-0.047182,0.326407
20.775775,-0.098772,-0.053560,0.327415
20.795825,-0.082731,-0.038701,0.336075
20.805865,-0.099817,-0.047159,0.329579
20.815905,-0.110472,-0.048213,0.333817
20.825915,-0.077391,-0.037676,0.341436
20.835956,-0.096604,-0.041835,0.330681
20.845965,-0.109368,-0.041874,0.347737
20.866015,-0.094417,-0.030165,0.345697
20.866015,-0.094417,-0.030165,0.345697
20.886065,-0.088017,-0.028050,0.345725
20.896106,-0.095451,-0.023800,0.355339
20.906146,-0.078394,-0.020636,0.352196
20.916156,-0.118914,-0.024751,0.346724
20.936206,-0.086892,-0.014236,0.359680
20.946246,-0.098628,-0.021699,0.364954
20.946246,-0.098628,-0.021699,0.364954
20.956256,-0.092215,-0.013161,0.361807
20.976336,-0.082606,-0.010014,0.367190
20.986346,-0.102880,-0.017414,0.364962
21.006396,-0.086864,-0.012171,0.374645
21.006396,-0.086864,-0.012171,0.374645
21.026446,-0.095392,-0.016446,0.381011
21.026446,-0.095392,-0.016446,0.381011
21.036487,-0.097544,-0.019607,0.373512
21.046527,-0.079399,-0.010055,0.373608
21.056537,-0.101793,-0.018561,0.380983
21.086627,-0.113528,-0.023873,0.383062
21.096637,-0.091157,-0.027144,0.382040
21.106677,-0.068742,-0.013318,0.378963
21.116717,-0.099685,-0.024955,0.376686
21.126727,-0.086895,-0.028231,0.383115
21.146777,-0.086875,-0.018599,0.378888
21.146777,-0.086875,-0.018599,0.378888
21.156817,-0.092245,-0.033533,0.378802
21.166827,-0.096476,-0.022850,0.380977
21.176867,-0.063426,-0.018680,0.380020
21.186908,-0.090096,-0.028210,0.380970
21.196917,-0.090111,-0.031394,0.376682
21.227008,-0.084766,-0.029306,0.383116
21.227008,-0.084766,-0.029306,0.383116
21.237018,-0.094350,-0.026071,0.383105
21.247058,-0.062394,-0.029348,0.376768
21.257068,-0.118891,-0.035597,0.381923
21.267108,-0.078378,-0.029306,0.378860
21.287158,-0.114647,-0.042014,0.380837
21.287158,-0.114647,-0.042014,0.380837
21.297198,-0.077293,-0.028292,0.389550
21.307208,-0.097566,-0.032463,0.381997
21.317248,-0.094372,-0.031385,0.377738
21.327258,-0.081571,-0.028233,0.379925
21.337298,-0.111446,-0.037727,0.375525
21.367389,-0.114613,-0.029194,0.379829
21.367389,-0.114613,-0.029194,0.379829
21.377398,-0.082617,-0.023983,0.385283
21.387439,-0.119950,-0.029151,0.374473
21.397448,-0.086872,-0.022917,0.388481
21.407489,-0.114594,-0.022791,0.380928
21.437579,-0.054879,-0.016618,0.389668
21.437579,-0.054879,-0.016618,0.389668
21.447589,-0.077287,-0.026157,0.389561
21.457629,-0.096457,-0.027218,0.401253
21.467639,-0.042096,-0.018795,0.389693
21.477679,-0.080479,-0.029395,0.399150
21.507769,-0.099669,-0.033625,0.403350
21.507769,-0.099669,-0.033625,0.403350
21.517779,-0.090096,-0.033596,0.390558
21.527820,-0.097562,-0.036785,0.392659
21.537829,-0.108226,-0.039964,0.394751
21.547870,-0.109289,-0.041044,0.397947
21.567920,-0.095417,-0.026062,0.382033
21.567920,-0.095417,-0.026062,0.382033
21.577960,-0.123149,-0.038833,0.391510
21.587970,-0.156198,-0.037617,0.382879
21.598010,-0.092188,-0.019711,0.391686
21.608020,-0.132714,-0.030268,0.393661
21.618060,-0.112455,-0.026052,0.391600
21.638110,-0.075119,-0.012275,0.388564
21.638110,-0.075119,-0.012275,0.388564
21.648150,-0.114586,-0.022816,0.386269
21.658160,-0.102819,-0.011143,0.393834
21.668200,-0.088981,-0.011132,0.382122
21.678210,-0.104950,-0.008985,0.390634
21.688250,-0.077243,-0.006909,0.384311
21.718366,-0.091097,-0.009020,0.388535
21.718366,-0.091097,-0.009020,0.388535
21.728376,-0.109248,-0.021786,0.390561
21.738416,-0.116695,-0.019651,0.395892
21.748426,-0.087906,-0.012244,0.390665
21.758466,-0.133746,-0.020679,0.399044
21.778516,-0.109234,-0.015368,0.388455
21.788556,-0.122021,-0.018566,0.395882
21.798566,-0.133779,-0.028114,0.390463
21.808606,-0.117775,-0.024987,0.395863
21.818616,-0.119902,-0.022840,0.394800
21.828656,-0.116715,-0.022820,0.388399
21.848706,-0.129521,-0.031342,0.392596
21.858747,-0.106070,-0.034662,0.401191
21.868756,-0.100742,-0.031445,0.394812
21.878797,-0.133807,-0.042027,0.396807
21.888806,-0.061277,-0.023050,0.399233
21.898847,-0.156213,-0.048342,0.392442
21.908856,-0.079427,-0.033666,0.398065
21.918897,-0.103943,-0.034654,0.397992
21.928907,-0.102909,-0.043175,0.392614
21.938947,-0.113558,-0.046400,0.404320
21.948987,-0.107176,-0.044224,0.391529
21.958997,-0.099689,-0.042179,0.405446
21.969037,-0.132771,-0.050554,0.392496
21.979047,-0.061318,-0.038001,0.399163
21.989087,-0.145582,-0.061217,0.397752
21.999097,-0.065579,-0.035841,0.397025
22.009137,-0.094356,-0.041133,0.406534
22.019178,-0.105039,-0.049637,0.405396
22.029187,-0.091172,-0.042176,0.399060
22.039228,-0.083699,-0.041163,0.405495
22.049237,-0.096492,-0.041111,0.403323
22.059278,-0.085825,-0.037942,0.403368
22.069287,-0.095410,-0.040087,0.411877
22.079328,-0.097551,-0.043284,0.411856
22.089368,-0.100752,-0.041107,0.405448
22.099378,-0.107145,-0.036784,0.399042
22.109418,-0.093278,-0.035787,0.404426
22.109418,-0.093278,-0.035787,0.404426
22.129468,-0.117817,-0.043167,0.401118
22.139478,-0.109259,-0.033599,0.404392
22.149518,-0.090073,-0.034744,0.407644
22.159558,-0.138059,-0.043127,0.406404
22.169568,-0.097539,-0.040090,0.414008
22.179608,-0.091144,-0.034726,0.404437
22.199659,-0.096468,-0.035802,0.409758
22.199659,-0.096468,-0.035802,0.409758
22.209668,-0.121016,-0.047459,0.407499
22.219709,-0.108183,-0.039023,0.421461
22.229749,-0.112467,-0.043251,0.415020
22.239759,-0.112464,-0.044339,0.419287
22.249799,-0.112456,-0.043286,0.422497
22.269849,-0.119931,-0.050757,0.426714
22.279859,-0.097537,-0.048715,0.431058
22.289899,-0.104987,-0.051955,0.443841
22.299909,-0.086890,-0.055177,0.435330
22.309949,-0.106058,-0.056243,0.448090
22.319989,-0.107110,-0.051973,0.449176
22.350049,-0.120986,-0.060482,0.451234
22.360089,-0.095385,-0.047709,0.442819
22.370099,-0.109219,-0.049886,0.460930
22.380139,-0.107100,-0.049853,0.452391
22.390180,-0.101756,-0.046686,0.456693
22.420240,-0.123057,-0.040199,0.454529
22.420240,-0.123057,-0.040199,0.454529
22.430280,-0.094253,-0.036072,0.465310
22.440290,-0.119882,-0.045524,0.449171
22.450330,-0.094240,-0.028571,0.460004
22.460370,-0.110245,-0.036005,0.462061
22.480420,-0.116617,-0.028513,0.463147
22.480420,-0.116617,-0.028513,0.463147
22.490430,-0.103844,-0.033890,0.462089
22.500470,-0.109184,-0.035993,0.458860
22.510480,-0.115560,-0.028492,0.457809
22.520520,-0.117684,-0.026354,0.458882
22.530561,-0.107044,-0.029562,0.452487
22.550611,-0.107048,-0.026318,0.443956
22.560620,-0.135808,-0.034894,0.470542
22.570661,-0.162501,-0.042197,0.452274
22.580670,-0.130495,-0.034861,0.459874
22.590711,-0.153950,-0.026145,0.439555
22.600751,-0.161400,-0.034770,0.461926
22.640851,-0.146450,-0.020906,0.455623
22.640851,-0.146450,-0.020906,0.455623
22.650861,-0.178445,-0.029355,0.457631
22.660901,-0.146466,-0.027318,0.456661
22.670911,-0.182698,-0.028294,0.461898
22.690992,-0.148584,-0.026279,0.464138
22.690992,-0.148584,-0.026279,0.464138
22.701038,-0.163500,-0.028402,0.471564
22.711079,-0.108037,-0.013631,0.471787
22.721088,-0.138974,-0.028522,0.480177
22.731129,-0.153880,-0.023134,0.480161
22.741138,-0.093092,-0.007292,0.476131
22.771229,-0.073896,-0.008468,0.485793
22.771229,-0.073896,-0.008468,0.485793
22.781269,-0.150685,-0.033909,0.498279
22.791279,-0.122966,-0.029717,0.496239
22.801319,-0.098413,-0.019148,0.502766
22.811329,-0.125087,-0.030819,0.504773
22.831409,-0.105912,-0.028774,0.508053
22.831409,-0.101629,-0.028774,0.508053
22.841419,-0.131475,-0.031896,0.511160
22.851459,-0.081370,-0.027792,0.512386
22.861469,-0.122940,-0.030876,0.515461
22.871509,-0.094153,-0.028849,0.518755
22.881519,-0.120810,-0.036263,0.523987
22.901600,-0.105865,-0.029925,0.528331
22.901600,-0.105865,-0.029925,0.528331
22.911610,-0.137868,-0.039422,0.526062
22.921650,-0.074939,-0.024695,0.530578
22.931660,-0.131460,-0.036254,0.529299
22.941700,-0.090918,-0.024669,0.535875
22.951710,-0.130303,-0.038702,0.594452
22.971790,-0.092668,-0.038798,0.814607
22.981800,-0.122408,-0.048717,0.899935
22.991840,-0.070053,-0.037453,0.966362
23.001850,-0.094479,-0.044115,1.036765
23.011890,-0.115719,-0.051825,1.100763
23.021900,-0.085832,-0.050985,1.128623
23.041950,-0.111185,-0.054850,1.285562
23.051990,-0.129315,-0.068760,1.303606
23.062031,-0.110065,-0.057182,1.326146
23.072040,-0.100570,-0.049363,1.247162
23.082081,-0.196762,-0.105287,1.169720
23.092091,-0.112377,-0.054447,1.201172
23.112141,-0.189251,-0.097932,1.190072
23.122181,-0.145565,-0.067873,1.127310
23.132221,-0.137195,-0.076024,1.038633
23.142231,-0.098770,-0.060171,1.047360
23.152271,-0.221465,-0.102454,1.039343
23.162281,-0.166040,-0.075713,0.992621
23.182331,-0.144783,-0.063747,0.931849
23.182331,-0.144783,-0.063747,0.931849
23.192371,-0.159846,-0.091257,0.887880
23.202412,-0.195004,-0.079335,0.875021
23.212421,-0.147137,-0.056574,0.771644
23.222462,-0.189873,-0.088422,0.760693
23.232471,-0.204799,-0.080817,0.743596
23.252521,-0.183563,-0.068785,0.668937
23.252521,-0.183563,-0.068785,0.668937
23.262562,-0.198523,-0.078308,0.660305
23.272602,-0.167640,-0.066479,0.621991
23.282612,-0.171903,-0.056772,0.604933
23.292652,-0.168753,-0.063094,0.584616
23.302662,-0.183703,-0.064033,0.567479
23.322712,-0.170869,-0.049133,0.569721
23.332752,-0.174076,-0.054478,0.572892
23.342792,-0.196477,-0.062964,0.575994
23.352802,-0.145254,-0.037479,0.571984
23.362842,-0.185804,-0.058737,0.578180
23.372852,-0.180460,-0.053414,0.578220
23.392902,-0.164478,-0.054529,0.577191
23.402943,-0.175119,-0.050238,0.580386
23.412952,-0.167683,-0.060957,0.583561
23.422993,-0.187923,-0.055536,0.580326
23.433033,-0.146329,-0.048221,0.585817
23.443043,-0.183704,-0.072647,0.582393
23.463093,-0.150620,-0.057813,0.584691
23.473133,-0.172014,-0.085505,0.583433
23.483143,-0.152780,-0.069564,0.586766
23.493183,-0.150643,-0.067435,0.586782
23.503223,-0.117611,-0.068595,0.583663
23.513233,-0.124021,-0.078221,0.591077
23.533283,-0.115498,-0.076083,0.584702
23.543323,-0.112298,-0.076103,0.586847
23.553333,-0.143239,-0.090979,0.592032
23.563373,-0.158179,-0.097333,0.590893
23.573414,-0.093091,-0.069773,0.590135
23.583424,-0.143254,-0.093084,0.585613
23.603474,-0.126164,-0.083564,0.593183
23.613514,-0.126158,-0.073887,0.579342
23.623524,-0.142149,-0.083517,0.594207
23.633564,-0.121915,-0.085688,0.587843
23.643604,-0.110143,-0.066488,0.584762
23.653614,-0.121882,-0.075019,0.590030
23.673664,-0.109062,-0.065464,0.593316
23.683704,-0.137846,-0.065346,0.587895
23.693714,-0.106927,-0.063325,0.591195
23.703796,-0.135717,-0.068577,0.592159
23.713837,-0.091957,-0.043063,0.587060
23.723846,-0.105865,-0.063319,0.589062
23.733887,-0.170900,-0.071656,0.589911
23.743896,-0.107924,-0.040921,0.596639
23.753937,-0.102617,-0.047330,0.593419
23.763946,-0.176241,-0.074832,0.587744
23.773987,-0.102592,-0.036636,0.590265
23.783997,-0.130327,-0.042933,0.585886
23.794037,-0.160223,-0.065288,0.591039
23.814087,-0.136720,-0.038611,0.579479
23.824127,-0.181537,-0.059839,0.582460
23.834137,-0.123954,-0.046117,0.577343
23.844177,-0.203926,-0.062975,0.583451
23.854187,-0.137759,-0.030074,0.581653
23.864227,-0.133580,-0.057828,0.576192
23.884277,-0.107910,-0.023728,0.574288
23.894318,-0.190108,-0.077981,0.585555
23.904327,-0.160204,-0.047037,0.570829
23.914368,-0.159126,-0.048154,0.580440
23.924377,-0.110111,-0.048278,0.573098
23.934418,-0.176220,-0.061972,0.578191
23.954468,-0.129311,-0.056784,0.578346
23.964508,-0.191151,-0.068356,0.583461
23.974518,-0.120754,-0.041826,0.570963
23.984558,-0.175161,-0.066262,0.581379
23.994568,-0.151692,-0.052405,0.570827
24.004608,-0.131412,-0.045025,0.577327
24.014648,-0.177288,-0.059807,0.572858
24.024658,-0.133544,-0.042862,0.573059
24.034698,-0.176206,-0.056632,0.578217
24.044708,-0.137829,-0.049241,0.569812
24.054748,-0.174083,-0.057687,0.573945
24.064758,-0.121797,-0.039742,0.582720
24.074799,-0.168774,-0.060872,0.566467
24.094849,-0.116475,-0.040812,0.579525
24.104889,-0.153838,-0.056659,0.568665
24.114899,-0.117520,-0.035489,0.583820
24.124939,-0.136780,-0.058886,0.576179
24.134949,-0.105855,-0.050423,0.572031
24.144989,-0.121814,-0.047228,0.584821
24.175079,-0.114368,-0.047206,0.575228
24.185089,-0.147434,-0.057788,0.577223
24.195129,-0.101559,-0.040845,0.576361
24.205139,-0.147423,-0.050283,0.570849
24.215179,-0.130372,-0.050333,0.569828
24.235229,-0.133556,-0.046056,0.570907
24.245270,-0.138874,-0.036377,0.560256
24.255279,-0.143159,-0.044911,0.561272
24.265320,-0.159167,-0.052335,0.561193
24.275330,-0.128216,-0.036411,0.560285
24.285370,-0.162367,-0.048007,0.551590
24.295380,-0.126072,-0.031073,0.559248
24.305420,-0.167704,-0.052272,0.553692
24.315460,-0.123932,-0.024642,0.552875
24.325470,-0.141015,-0.037417,0.555972
24.335510,-0.135701,-0.040618,0.551699
24.345520,-0.146331,-0.030977,0.552784
24.355560,-0.139943,-0.025593,0.538940
24.385651,-0.130345,-0.027795,0.546434
24.395660,-0.185847,-0.052137,0.537619
24.405701,-0.114345,-0.022502,0.545435
24.415710,-0.162375,-0.046904,0.544118
24.425751,-0.150656,-0.045849,0.538814
24.445801,-0.130389,-0.044892,0.548489
24.455841,-0.122948,-0.048085,0.541017
24.465851,-0.169860,-0.058652,0.549383
24.465851,-0.169860,-0.058652,0.549383
24.485901,-0.137864,-0.051286,0.550574
24.495941,-0.137895,-0.059804,0.545193
24.515991,-0.102708,-0.053505,0.544252
24.526001,-0.147539,-0.076844,0.541881
24.536041,-0.145378,-0.066172,0.541938
24.536041,-0.145378,-0.066172,0.541938
24.556091,-0.161440,-0.091735,0.538568
24.566132,-0.133646,-0.061928,0.539854
24.586182,-0.118778,-0.080121,0.537672
24.596191,-0.132611,-0.067221,0.529149
24.606232,-0.142205,-0.071491,0.535512
24.616272,-0.127299,-0.074724,0.531265
24.626282,-0.108074,-0.057679,0.527126
24.626282,-0.108074,-0.057679,0.527126
24.646332,-0.104873,-0.059855,0.533534
24.676422,-0.092066,-0.052411,0.531468
24.676422,-0.092066,-0.052411,0.531468
24.686462,-0.110213,-0.054417,0.516453
24.696472,-0.109125,-0.046950,0.517560
24.706524,-0.122994,-0.052250,0.518565
24.716534,-0.109120,-0.046966,0.520764
24.746625,-0.126194,-0.053308,0.518551
24.746625,-0.126194,-0.053308,0.518551
24.756665,-0.146428,-0.047907,0.519589
24.766675,-0.114432,-0.038385,0.516517
24.776715,-0.144329,-0.058583,0.517407
24.786725,-0.130412,-0.037280,0.519683
24.816815,-0.130415,-0.041577,0.525004
24.816815,-0.130415,-0.041577,0.525004
24.826855,-0.124047,-0.044746,0.513256
24.836865,-0.165652,-0.062801,0.520533
24.846905,-0.159233,-0.051049,0.515265
24.856915,-0.120848,-0.043683,0.512202
24.876965,-0.129380,-0.042562,0.506842
24.876965,-0.129380,-0.042562,0.506842
24.887005,-0.161401,-0.062774,0.511999
24.897015,-0.156038,-0.047821,0.507812
24.907055,-0.138963,-0.039327,0.506831
24.917096,-0.157149,-0.061675,0.502402
24.927105,-0.152840,-0.046753,0.505690
24.957196,-0.140069,-0.049968,0.499300
24.957196,-0.140069,-0.049968,0.499300
24.967206,-0.141124,-0.043537,0.495055
24.977246,-0.159294,-0.062705,0.495982
24.987286,-0.126230,-0.049962,0.488657
24.997296,-0.161429,-0.060532,0.489577
25.017346,-0.159322,-0.069078,0.488475
25.017346,-0.159322,-0.069078,0.488475
25.027386,-0.147582,-0.058396,0.480012
25.037396,-0.144368,-0.054150,0.483245
25.047436,-0.119857,-0.052068,0.477982
25.057477,-0.170001,-0.070055,0.476690
25.067486,-0.102767,-0.041470,0.483420
25.097577,-0.113436,-0.041400,0.475914
25.097577,-0.113436,-0.041400,0.475914
25.107586,-0.103857,-0.046775,0.476983
25.117627,-0.133779,-0.067971,0.462913
25.127667,-0.120921,-0.052070,0.479047
25.137677,-0.101738,-0.048898,0.472706
25.167767,-0.094286,-0.051048,0.470580
25.177777,-0.088945,-0.050028,0.477009
25.187817,-0.100694,-0.054216,0.467343
25.197857,-0.077234,-0.050025,0.468496
25.207867,-0.097492,-0.054241,0.470556
25.237958,-0.103907,-0.058467,0.465177
25.237958,-0.103907,-0.058467,0.465177
25.247967,-0.111361,-0.052000,0.457710
25.258008,-0.092170,-0.051004,0.459904
25.268017,-0.122057,-0.064770,0.455483
25.278058,-0.099630,-0.046673,0.452426
25.308148,-0.149791,-0.066760,0.443647
25.308148,-0.149791,-0.066760,0.443647
25.318158,-0.059099,-0.030745,0.444068
25.328198,-0.131689,-0.067847,0.435146
25.338208,-0.112454,-0.052988,0.441679
25.348248,-0.091135,-0.044448,0.427891
25.368298,-0.078374,-0.051940,0.422550
25.378338,-0.126342,-0.054993,0.423471
25.388348,-0.112498,-0.060388,0.425621
25.398388,-0.106143,-0.066745,0.410653
25.408398,-0.115712,-0.063556,0.420256
25.418438,-0.096514,-0.055045,0.413940
25.448529,-0.099731,-0.058203,0.406438
25.448529,-0.099731,-0.058203,0.406438
25.458539,-0.105067,-0.062472,0.409608
25.468579,-0.127504,-0.078383,0.401993
25.478589,-0.118931,-0.060246,0.399966
25.488629,-0.080541,-0.055051,0.404370
25.518719,-0.112541,-0.062407,0.401042
25.518719,-0.112541,-0.062407,0.401042
25.528729,-0.114685,-0.063438,0.394622
25.538769,-0.118966,-0.067676,0.390317
25.548779,-0.125357,-0.064436,0.387110
25.558819,-0.091223,-0.056019,0.390449
25.578869,-0.120016,-0.055874,0.379688
25.588910,-0.092295,-0.050610,0.376585
25.598919,-0.126430,-0.060100,0.374309
25.608960,-0.112564,-0.053717,0.370105
25.618969,-0.106157,-0.049466,0.370143
25.629010,-0.107232,-0.049433,0.363731
25.659100,-0.096565,-0.044112,0.360581
25.659100,-0.096565,-0.044112,0.360581
25.669110,-0.089089,-0.035568,0.355301
25.679150,-0.080569,-0.038804,0.356377
25.689160,-0.121129,-0.058953,0.354033
25.699215,-0.082690,-0.026984,0.342540
25.729306,-0.133904,-0.046031,0.340172
25.729306,-0.133904,-0.046031,0.340172
25.739315,-0.070968,-0.024861,0.337242
25.749356,-0.106222,-0.051415,0.330609
25.759365,-0.104051,-0.038622,0.333881
25.769406,-0.095519,-0.033280,0.327520
25.799496,-0.085954,-0.033225,0.309387
25.799496,-0.085954,-0.033225,0.309387
25.809506,-0.084861,-0.032236,0.325418
25.819546,-0.096606,-0.036440,0.318956
25.829556,-0.072074,-0.024731,0.310534
25.839596,-0.077396,-0.024734,0.314792
25.859646,-0.088080,-0.031082,0.309391
25.869686,-0.050740,-0.014086,0.303166
25.879696,-0.108355,-0.040633,0.310358
25.889736,-0.045436,-0.021564,0.299940
25.899746,-0.121158,-0.043780,0.307103
25.909786,-0.053984,-0.023621,0.289225
25.939877,-0.074239,-0.030003,0.297684
25.949887,-0.098788,-0.036276,0.285837
25.959927,-0.045449,-0.020445,0.289264
25.969937,-0.099871,-0.041602,0.283672
25.979977,-0.085973,-0.025623,0.282718
26.000027,-0.131878,-0.048933,0.275003
26.000027,-0.131878,-0.048933,0.275003
26.010037,-0.023045,-0.006584,0.278709
26.020077,-0.098830,-0.044758,0.272978
26.030117,-0.070002,-0.026702,0.274211
26.040127,-0.061483,-0.025632,0.267830
26.050167,-0.104160,-0.040429,0.264438
26.080227,-0.126552,-0.040326,0.257967
26.080227,-0.126552,-0.040326,0.257967
26.090267,-0.032713,-0.016007,0.245523
26.100308,-0.097794,-0.046822,0.256948
26.110317,-0.071113,-0.021172,0.234710
26.120358,-0.089261,-0.035021,0.239936
26.140408,-0.075399,-0.029701,0.234658
26.150418,-0.101018,-0.043496,0.233454
26.160458,-0.065834,-0.036110,0.228245
26.170498,-0.101033,-0.041295,0.219577
26.180508,-0.078632,-0.033887,0.218606
26.190548,-0.050938,-0.038233,0.215457
26.210598,-0.047702,-0.018976,0.205944
26.210598,-0.047702,-0.018976,0.205944
26.220608,-0.061605,-0.039246,0.211150
26.230648,-0.101067,-0.046574,0.206734
26.240689,-0.055185,-0.026422,0.204819
26.250698,-0.081903,-0.051955,0.202488
26.260739,-0.057330,-0.028525,0.199463
26.280789,-0.068050,-0.045532,0.189739
26.280789,-0.068050,-0.045532,0.189739
26.290798,-0.062686,-0.035963,0.195140
26.300839,-0.078674,-0.033755,0.190833
26.310879,-0.071242,-0.041230,0.185477
26.320889,-0.040304,-0.031729,0.187744
26.330929,-0.074425,-0.033724,0.181231
26.350979,-0.038212,-0.038073,0.172765
26.360989,-0.071245,-0.035834,0.173752
26.371029,-0.073386,-0.040104,0.174794
26.381039,-0.080901,-0.053913,0.164026
26.391079,-0.042460,-0.030568,0.169584
26.401119,-0.075551,-0.043225,0.158750
26.421170,-0.041421,-0.038027,0.165279
26.431179,-0.044601,-0.030531,0.163169
26.441220,-0.072342,-0.036808,0.154517
26.451229,-0.019017,-0.023088,0.152593
26.461270,-0.044624,-0.035845,0.157803
26.471310,-0.042479,-0.025122,0.147177
26.491360,-0.044635,-0.028268,0.136474
26.501370,-0.027543,-0.018753,0.145112
26.511410,-0.076641,-0.042068,0.140593
26.521420,-0.044660,-0.032500,0.127908
26.531460,-0.038236,-0.027226,0.137565
26.541500,-0.055295,-0.026073,0.131114
26.561550,-0.064923,-0.036700,0.126764
26.571560,-0.017992,-0.022965,0.125891
26.581600,-0.057462,-0.032418,0.119328
26.591610,-0.080953,-0.044053,0.111730
26.601650,-0.012662,-0.017597,0.116317
26.611691,-0.026588,-0.041026,0.111895
26.631741,-0.046821,-0.028089,0.100150
26.641751,0.019280,-0.024063,0.106761
26.651791,-0.043653,-0.043086,0.107565
26.661801,-0.055378,-0.035507,0.093682
26.671841,-0.029798,-0.036668,0.095883
26.681881,-0.022354,-0.042027,0.094810
26.701979,-0.084204,-0.054646,0.095648
26.711989,-0.030882,-0.034453,0.079868
26.722029,-0.021294,-0.042010,0.090541
26.732039,-0.067169,-0.052490,0.079682
26.742079,-0.044747,-0.034377,0.073420
26.752089,-0.050104,-0.050430,0.084012
26.772170,-0.042627,-0.044041,0.082994
26.782179,-0.090620,-0.052404,0.077481
26.792220,0.025657,-0.013257,0.075851
26.802229,-0.011723,-0.043053,0.078812
26.812270,-0.053262,-0.033307,0.078743
26.822280,-0.043662,-0.029056,0.076653
26.842360,-0.008473,-0.020607,0.072518
26.852370,-0.059688,-0.039653,0.070150
26.862410,-0.023423,-0.028009,0.067100
26.872420,0.008597,-0.015333,0.074726
26.882460,-0.035178,-0.037567,0.063818
26.892470,-0.022338,-0.023766,0.072464
26.912551,0.026717,-0.012163,0.069450
26.922560,0.000043,-0.020604,0.066132
26.932601,-0.040480,-0.025787,0.060654
26.942610,-0.010592,-0.007714,0.057618
26.952651,0.018157,-0.018492,0.058714
26.962660,-0.007434,-0.022681,0.058624
26.982741,-0.009613,-0.024678,0.030835
26.992751,0.019233,-0.010990,0.052344
27.002791,0.002178,-0.014158,0.056554
27.012801,-0.056532,-0.039532,0.042385
27.022841,0.002171,-0.009826,0.043756
27.032851,-0.012779,-0.021535,0.045796
27.052931,-0.045854,-0.029935,0.038187
27.052931,-0.045854,-0.029935,0.038187
27.062941,-0.003165,-0.013017,0.044795
27.072981,-0.003183,-0.020503,0.046896
27.082991,0.010679,-0.013027,0.037355
27.093031,0.003234,-0.013053,0.048017
27.103041,-0.060812,-0.045926,0.042343
27.123091,-0.000009,-0.027979,0.044733
27.123091,-0.000009,-0.027979,0.044733
27.133132,-0.014914,-0.023674,0.047916
27.143172,-0.004239,-0.020530,0.053302
27.153182,-0.028803,-0.026751,0.030772
27.163222,0.008558,-0.017362,0.052284
27.173232,-0.020269,-0.033268,0.047856
27.193282,-0.036243,-0.026793,0.044638
27.193282,-0.036243,-0.026793,0.044638
27.203322,-0.013890,-0.028931,0.029735
27.213362,-0.021298,-0.022610,0.053245
27.223372,-0.052251,-0.025597,0.028576
27.233412,-0.017042,-0.022599,0.047916
27.243422,-0.008517,-0.019392,0.041545
27.263472,-0.015994,-0.024703,0.040431
27.273512,-0.054387,-0.034194,0.041348
27.283553,0.017090,-0.001250,0.026747
27.293563,0.007474,-0.017303,0.040531
27.303603,-0.038419,-0.034186,0.028574
27.313613,0.021356,-0.006659,0.038483
27.343703,0.006428,-0.013053,0.045889
27.353743,-0.033086,-0.033140,0.029662
27.363753,0.006396,-0.017259,0.031982
27.373793,-0.019216,-0.027845,0.029725
27.383803,0.004238,-0.022557,0.024474
27.403853,-0.040562,-0.033065,0.018959
27.403853,-0.040562,-0.033065,0.018959
27.413893,0.005317,-0.015059,0.019171
27.423934,-0.024559,-0.035324,0.033948
27.433943,0.002092,-0.022504,0.014854
27.443984,-0.031994,-0.026761,0.035036
27.453993,-0.032019,-0.029914,0.024339
27.474043,-0.016006,-0.031125,0.043605
27.484084,0.022361,-0.011855,0.007483
27.494124,-0.010675,-0.027919,0.039362
27.504134,-0.019238,-0.029931,0.019033
27.514174,0.028796,-0.008774,0.028880
27.524184,-0.028840,-0.044947,0.039232
27.544234,0.002102,-0.021457,0.019132
27.554274,-0.032027,-0.037430,0.032849
27.564284,0.003210,-0.004358,0.016011
27.574324,0.006408,-0.015144,0.036265
27.584365,-0.066189,-0.047913,0.014545
27.594374,-0.006378,-0.004342,0.019190
27.614424,-0.022424,-0.035341,0.036090
27.624465,-0.024551,-0.023501,0.017981
27.634474,-0.036287,-0.032042,0.025385
27.644515,-0.005401,-0.033149,0.012647
27.654555,-0.012837,-0.033201,0.028649
27.664565,-0.011775,-0.036423,0.031842
27.684615,-0.004331,-0.028856,0.007329
27.694655,-0.054402,-0.033071,0.029603
27.704674,0.044752,-0.011958,0.013954
27.714714,-0.086428,-0.054346,0.033687
27.724754,-0.004302,-0.017098,0.005248
27.734764,-0.045914,-0.044826,0.025298
27.754814,-0.033094,-0.037422,0.031778
27.764854,-0.005353,-0.011755,0.005271
27.774864,-0.024535,-0.014932,0.012680
27.784905,-0.050150,-0.037356,0.029595
27.794945,0.022417,0.007357,0.009711
27.804955,-0.037332,-0.031026,0.037138
27.825005,0.035180,0.004168,-0.002019
27.835045,-0.055480,-0.042724,0.039168
27.845055,-0.011781,-0.025633,0.008392
27.855095,0.056570,0.014636,0.027999
27.865135,-0.074679,-0.044767,0.032696
27.875145,0.031940,-0.019387,0.012815
27.895195,-0.030983,-0.040597,0.024291
27.905235,0.020272,-0.005522,0.024599
27.915245,-0.030922,-0.019244,0.025461
27.925285,-0.060838,-0.040460,0.015664
27.935295,0.002127,-0.007533,0.010652
27.945335,-0.004335,-0.038538,0.022238
27.965385,0.019206,0.002023,0.010745
27.975426,-0.057617,-0.044853,0.039152
27.985436,0.003178,-0.006413,-0.001090
27.995476,0.029851,-0.008742,0.021405
28.005486,-0.040510,-0.029998,0.047816
28.015526,0.023455,0.014981,-0.022297
28.045616,0.032029,0.022343,-0.004079
28.055626,-0.044760,-0.027874,0.053155
28.065666,0.001064,-0.001076,0.001066
28.075676,0.009572,-0.008585,0.002122
28.085716,-0.098043,-0.023414,0.049824
28.115807,-0.050111,-0.009474,0.005158
28.125816,0.023497,0.006230,0.021459
28.135857,-0.085304,-0.031913,0.031660
28.145866,-0.010625,0.008548,0.006420
28.155907,0.021377,0.002968,0.035324
28.165947,-0.062924,-0.025517,0.018933
28.175957,0.003235,0.009566,0.007532
28.175957,0.003235,0.009566,0.007532
28.196007,-0.056495,-0.007332,0.008355
28.206047,0.013941,0.008301,0.041738
28.206047,0.013941,0.008301,0.041738
28.226097,-0.051194,-0.029883,0.030695
28.256187,-0.067154,-0.021297,0.032828
28.266197,-0.013810,-0.001175,0.032003
28.266197,-0.013810,-0.001175,0.032003
28.286247,-0.057537,-0.018175,0.043552
28.296288,0.037444,0.043598,0.014197
28.306297,-0.046965,-0.039482,0.025321
28.316338,-0.032963,-0.006599,0.062902
28.316338,-0.032963,-0.006599,0.062902
28.326378,0.025536,0.006517,-0.040491
28.346428,0.042648,0.010581,-0.008378
28.356438,0.042648,0.010581,0.041655
28.366478,0.027726,-0.045782,0.059244
28.386528,-0.046931,-0.054671,0.075455
28.386528,-0.046931,-0.054671,0.075455
28.396568,-0.024617,-0.043756,0.010407
28.416618,-0.069338,-0.057752,0.064696
28.426628,-0.069338,-0.024719,0.003208
28.426628,0.043635,-0.024719,0.003208
28.436668,-0.015982,-0.039821,0.075611
28.466759,-0.065141,-0.070479,0.043283
28.466759,-0.065141,-0.070479,0.043283
28.476769,0.063965,-0.004571,0.019383
28.486809,-0.016037,-0.063345,0.081908
28.496819,-0.032000,-0.035360,0.046746
28.506859,0.006378,-0.022589,0.029821
28.536949,-0.009626,-0.049412,0.067037
28.536949,-0.009626,-0.049412,0.067037
28.546959,-0.009610,-0.038693,0.058542
28.556999,0.004233,-0.027927,0.030858
28.567009,-0.045873,-0.055727,0.072248
28.577049,-0.012796,-0.020406,0.032983
28.607140,0.009570,-0.031198,0.041539
28.607140,0.009570,-0.031198,0.041539
28.617149,-0.038429,-0.053545,0.057324
28.627190,0.067198,-0.007926,0.049286
28.637199,-0.056513,-0.042822,0.060529
28.647240,0.006427,-0.015205,0.049084
28.677300,-0.002167,-0.032198,0.035093
28.677300,-0.002167,-0.032198,0.035093
28.687340,-0.020213,-0.020518,0.061803
28.697380,0.019243,0.000829,0.037445
28.707432,-0.079934,-0.042832,0.078624
28.717473,0.028882,0.025425,0.023701
28.747533,0.027793,0.022271,0.014069
28.747533,0.027793,0.022271,0.014069
28.757573,-0.079961,-0.043824,0.062596
28.767614,0.008591,0.005155,0.033163
28.777622,-0.004214,-0.009835,0.050148
28.787664,-0.033041,-0.027897,0.049983
28.817723,-0.089584,-0.035077,0.026292
28.817723,-0.089584,-0.035077,0.026292
28.827764,0.002226,0.016928,0.032133
28.837804,-0.060726,-0.016039,0.045689
28.847813,-0.025645,-0.037411,0.024321
28.857854,-0.018042,-0.004491,0.058681
28.887913,0.006435,-0.014152,0.052293
28.887913,0.006435,-0.014152,0.052293
28.897954,-0.033019,-0.011807,0.035104
28.907994,0.016058,-0.004587,0.055570
28.918003,-0.002147,-0.027951,0.040454
28.928044,0.006412,-0.013003,0.035207
28.958104,0.033066,-0.028197,0.068324
28.958104,0.033066,-0.028197,0.068324
28.968145,-0.001104,-0.039732,0.046810
28.978185,-0.013910,-0.038562,0.033962
28.988194,0.001017,-0.041860,0.043602
28.998235,-0.014961,-0.037526,0.041441
29.028294,-0.004314,-0.034296,0.028668
29.028294,-0.004314,-0.034296,0.028668
29.038335,-0.025653,-0.048156,0.038157
29.048345,-0.017129,-0.052486,0.044569
29.058384,-0.013955,-0.048113,0.021098
29.068425,-0.010699,-0.041847,0.048910
29.098484,-0.027790,-0.041670,0.023227
29.098484,-0.027790,-0.041670,0.023227
29.108525,-0.022412,-0.026762,0.028653
29.118535,-0.033079,-0.029931,0.028609
29.128574,-0.017080,-0.025711,0.028673
29.138616,-0.009577,-0.010790,0.029832
29.158665,0.007420,-0.018209,0.006344
29.168675,-0.017047,-0.024740,0.048974
29.178716,-0.024512,-0.011774,0.022309
29.188726,0.020206,-0.029011,0.023419
29.198765,-0.044772,-0.022448,0.035021
29.208806,0.004299,-0.002281,0.027775
29.238865,-0.045803,-0.004244,0.025490
29.238865,-0.045803,-0.004244,0.025490
29.248906,0.008540,-0.010844,0.028814
29.258916,-0.051140,-0.008509,0.027592
29.268955,0.056575,0.013543,0.033335
29.278997,-0.077883,-0.045815,0.030546
29.299047,-0.039472,-0.028838,0.027528
29.309055,0.021335,-0.005515,0.022465
29.319097,0.002126,-0.015069,0.023435
29.329106,-0.045837,-0.026757,0.043543
29.339146,0.011761,0.005231,0.015012
29.349187,0.009589,-0.019411,0.033049
29.379246,-0.053315,-0.026677,0.031773
29.379246,-0.053315,-0.026677,0.031773
29.389287,-0.010671,-0.011773,0.012733
29.399297,-0.023448,-0.016079,0.028701
29.409336,-0.018156,-0.028907,0.027587
29.419377,0.010619,-0.010684,-0.006430
29.449436,0.020255,-0.018393,0.036288
29.449436,0.020255,-0.018393,0.036288
29.459478,-0.076828,-0.041476,0.015615
29.469487,0.075722,0.013597,0.008819
29.479527,-0.078977,-0.047876,0.015578
29.489537,-0.012799,-0.019318,0.028715
29.509618,-0.027743,-0.036432,0.044616
29.509618,-0.027743,-0.036432,0.044616
29.519627,0.018116,0.003180,-0.007412
29.529668,0.003228,-0.008726,0.036287
29.539678,-0.057639,-0.035090,0.007152
29.549717,0.029890,0.007293,0.018277
29.559727,-0.025611,-0.025669,0.025445
29.579808,0.033047,-0.010903,0.024609
29.589817,-0.078965,-0.045761,0.019861
29.599858,0.045880,0.013694,0.008737
29.609868,-0.041625,-0.030916,0.016830
29.619907,0.029840,-0.011940,0.020322
29.629917,0.006332,-0.028905,0.010563
29.660008,0.036265,-0.001282,0.020390
29.670049,0.006337,-0.029999,0.015899
29.680059,-0.012826,-0.025695,0.022275
29.690098,0.039403,-0.021573,0.018166
29.700108,-0.045913,-0.036211,0.010384
29.730211,0.053272,-0.018429,0.021424
29.730211,0.053272,-0.018429,0.021424
29.740252,0.007359,-0.047099,0.017957
29.750262,0.016943,-0.041720,0.003054
29.760301,0.032965,-0.035420,0.014879
29.770312,-0.015054,-0.049081,0.000794
29.790392,0.029755,-0.035369,0.006324
29.800401,-0.022507,-0.055546,0.017835
29.810443,0.037206,-0.033207,-0.004327
29.820452,-0.006563,-0.056539,-0.008831
29.830492,0.043630,-0.031168,0.011724
29.840503,-0.015112,-0.066133,-0.006764
29.860553,0.084135,-0.011925,-0.020120
29.870592,-0.055568,-0.070450,0.030491
29.880633,0.019057,-0.028745,-0.032130
29.890643,0.067061,-0.033344,0.004300
29.900682,-0.073777,-0.067952,-0.033640
29.910693,0.123553,-0.013075,-0.029630
29.940782,0.043613,-0.032190,0.002105
29.940782,0.043613,-0.032190,0.002105
29.950824,-0.057716,-0.052081,-0.013224
29.960833,0.036155,-0.022478,-0.013893
29.970873,-0.042757,-0.041475,-0.007792
29.980883,0.015852,-0.034094,-0.027891
30.010973,-0.010784,-0.039423,-0.011967
30.010973,-0.010784,-0.039423,-0.011967
30.021014,-0.025744,-0.051102,-0.016336
30.031024,0.023369,-0.018140,-0.019249
30.041063,-0.067376,-0.074456,-0.017630
30.051074,0.006212,-0.054379,-0.022673
30.071124,-0.000209,-0.057506,-0.034455
30.081163,-0.030043,-0.067132,-0.011083
30.091204,-0.021481,-0.044652,-0.028044
30.101214,-0.000153,-0.047991,-0.014114
30.111253,-0.054604,-0.075520,-0.027214
30.121264,0.005166,-0.051207,-0.015183
30.141314,-0.014053,-0.052111,-0.036605
30.151354,-0.051365,-0.068120,-0.013283
30.161395,-0.014008,-0.042561,-0.023741
30.171405,-0.021533,-0.064953,-0.026004
30.181444,-0.102529,-0.069012,-0.015565
30.191454,0.046703,-0.041554,-0.052410
30.211505,-0.048206,-0.065853,-0.043173
30.221544,-0.017274,-0.069264,-0.020671
30.231555,-0.048198,-0.068035,-0.033570
30.241595,-0.022627,-0.072400,-0.031383
30.251634,-0.065262,-0.078714,-0.021917
30.261644,-0.022618,-0.062733,-0.043088
30.281695,-0.024756,-0.072403,-0.029253
30.291734,-0.038593,-0.068106,-0.024998
30.301745,-0.008714,-0.053237,-0.028049
30.311785,-0.000187,-0.050036,-0.033352
30.321825,0.030764,-0.037346,-0.027865
30.331835,-0.032190,-0.061689,-0.031359
30.351886,0.012647,-0.038371,-0.024715
30.361925,-0.000156,-0.045825,-0.020513
30.371936,0.003076,-0.037327,-0.012987
30.381976,0.029690,-0.030854,-0.044929
30.392015,-0.016145,-0.053309,-0.007774
30.402025,0.013768,-0.027776,-0.007571
30.422076,0.002069,-0.017043,-0.010757
30.432115,-0.006547,-0.036122,-0.035440
30.442126,0.007354,-0.034157,-0.008687
30.452166,-0.019267,-0.014757,-0.027897
30.462207,0.022321,-0.007422,-0.026679
30.472215,-0.028846,-0.027693,0.004062
30.492266,0.050154,0.021186,0.002375
30.502306,-0.059825,-0.038140,-0.023846
30.512316,0.041541,0.010716,-0.036154
30.522357,-0.025561,-0.002129,0.015942
30.532396,-0.001127,-0.009497,-0.023549
30.542406,0.036249,0.009539,-0.009469
30.562457,0.051114,-0.002181,-0.025506
30.572496,-0.028801,-0.017064,0.014795
30.582507,0.027681,-0.008613,-0.004237
30.592547,0.042593,-0.010787,-0.006343
30.602586,0.007449,-0.010759,0.011720
30.612596,0.014880,-0.020385,0.009559
30.632647,0.025538,-0.013956,-0.002132
30.642687,0.024481,-0.024753,0.023451
30.652697,0.011702,-0.009665,0.003191
30.662738,0.027643,-0.023574,-0.002172
30.672747,-0.012827,-0.021383,0.013750
30.682787,0.047938,-0.005470,-0.005234
30.702838,0.006356,-0.016055,0.003146
30.712924,0.056466,-0.013044,0.009708
30.722934,-0.016099,-0.045914,0.009352
30.732974,0.018080,-0.020405,0.011704
30.742984,0.023403,-0.019324,0.005314
30.753024,0.026547,-0.038557,0.005232
30.773074,0.038297,-0.021443,-0.008541
30.783114,-0.055566,-0.056456,0.007057
30.793124,0.042603,-0.011896,0.002198
30.803164,-0.065164,-0.052097,-0.004699
30.813174,0.027673,-0.015051,0.002142
30.823215,-0.036348,-0.036156,-0.007749
30.853305,0.020181,-0.016004,-0.017111
30.863315,-0.036304,-0.030908,0.011504
30.873355,-0.021407,-0.025495,-0.014067
30.883365,0.001033,-0.017136,0.009536
30.893405,-0.014983,-0.019144,-0.006541
30.913455,-0.022414,-0.017060,0.009471
30.923495,-0.008624,-0.026595,-0.016173
30.933505,-0.020310,-0.029907,0.014757
30.943545,-0.024607,-0.027631,-0.011949
30.953555,-0.001094,-0.020373,0.018060
30.963595,-0.029931,-0.022244,-0.018348
30.983645,-0.048042,-0.032980,0.006120
30.993686,0.029806,-0.016141,0.005347
31.003695,-0.060832,-0.037246,0.013542
31.013736,0.035175,-0.003359,0.008627
31.023746,0.005271,-0.022454,0.002045
31.033786,-0.044835,-0.033021,0.012538
31.053836,-0.059761,-0.034035,0.011424
31.063876,-0.024546,-0.015975,0.007334
31.073886,0.029879,0.006250,0.012931
31.083926,-0.053361,-0.032993,0.012515
31.093936,-0.016027,-0.020289,0.010542
31.103976,0.020298,0.006246,0.020382
31.124026,0.041604,0.007285,0.011900
31.134067,-0.048000,-0.021263,0.012585
31.144076,-0.012812,-0.011736,0.006318
31.154117,-0.015966,-0.002170,0.018105
31.164126,-0.024536,-0.011698,0.006286
31.174167,-0.003182,0.002116,0.006410
31.194217,-0.042679,-0.015870,-0.002329
31.204257,-0.024482,0.001056,0.019165
31.214267,-0.044765,-0.002006,0.003071
31.224307,-0.006372,-0.000050,0.014937
31.234317,-0.003156,0.012805,0.004325
31.244357,-0.050118,-0.013761,0.008342
31.264407,-0.012757,0.004247,0.013872
31.274447,-0.022349,0.004279,0.013845
31.284457,-0.021292,0.007535,0.002113
31.294497,-0.000998,0.014868,0.018227
31.304507,-0.069312,-0.016897,0.007206
31.314548,0.013934,0.025560,0.005500
31.344638,-0.038318,0.007504,0.020226
31.344638,-0.038318,0.007504,0.020226
31.354648,-0.027687,0.006477,0.004227
31.364688,0.018196,0.016932,0.020426
31.374698,-0.078888,-0.014766,0.014667
31.384738,0.049113,0.038347,-0.012501
31.404788,-0.019167,0.008626,-0.004285
31.414798,0.001091,0.002072,0.012831
31.424838,-0.066058,-0.009548,0.031819
31.434878,-0.004274,0.004356,-0.014946
31.444888,-0.034057,-0.002197,0.036215
31.454928,-0.050132,-0.012637,-0.003403
31.474978,-0.066144,-0.024358,0.001838
31.484988,0.027726,0.003094,0.004364
31.495028,-0.068253,-0.031963,0.030638
31.505069,-0.009650,-0.018098,-0.005453
31.515079,-0.033089,-0.027745,0.017937
31.525119,-0.022443,-0.028817,0.011552
31.545169,-0.050148,-0.040596,0.037057
31.555179,-0.015050,-0.039399,-0.014115
31.565219,-0.007512,-0.032130,0.024396
31.575259,-0.053413,-0.052221,0.013492
31.585269,-0.026786,-0.051174,-0.000316
31.595309,-0.026705,-0.035271,0.024328
31.625369,-0.026807,-0.053259,-0.011008
31.625369,-0.026807,-0.053259,-0.011008
31.635409,0.042560,-0.037612,0.020236
31.645450,-0.044937,-0.068247,0.009167
31.655459,-0.000114,-0.050268,0.015785
31.665500,-0.007568,-0.051343,0.022169
31.685550,-0.011862,-0.060925,0.018907
31.695559,0.007385,-0.038566,0.020134
31.705619,-0.006557,-0.060866,0.002899
31.705619,-0.006557,-0.060866,0.002899
31.725669,-0.008650,-0.043747,-0.002367
31.735709,-0.000084,-0.041745,0.020098
31.755759,-0.009691,-0.045976,0.017915
31.765769,-0.017109,-0.031006,0.019034
31.775809,-0.006483,-0.037402,0.009419
31.785819,-0.039451,-0.029981,0.043546
31.795859,0.031937,-0.013992,0.001090
31.805900,-0.057594,-0.035232,0.037062
31.825950,0.000035,-0.005496,0.033089
31.835959,-0.074677,-0.036158,0.018850
31.846000,0.058705,0.026467,0.008833
31.856009,-0.115189,-0.040298,0.018719
31.866050,-0.025550,-0.016169,0.048991
31.876090,0.050185,0.040479,-0.012488
31.906150,-0.021241,0.007373,0.036295
31.916190,-0.028732,0.001030,0.027699
31.926200,0.008526,-0.009720,0.017069
31.936240,-0.015912,0.000892,0.048030
31.946280,-0.027700,0.000055,0.007401
31.966330,-0.014895,-0.003267,0.023444
31.966330,-0.014895,-0.003267,0.023444
31.986380,-0.021299,-0.004294,0.019149
31.986380,-0.021299,-0.004294,0.019149
31.996390,0.008594,0.005145,0.035299
32.006431,-0.010656,-0.012897,0.024478
32.016471,0.033080,-0.002390,0.031058
32.056571,-0.058679,-0.041631,0.035960
32.056571,-0.058679,-0.041631,0.035960
32.076621,0.054386,-0.051221,0.022066
32.076621,-0.044871,-0.051221,0.022066
32.086661,0.019170,-0.025870,0.037318
32.116721,-0.004311,-0.045077,0.049981
32.116721,-0.004311,-0.045077,0.049981
32.126761,0.014824,-0.038519,0.005200
32.136771,-0.012822,-0.055870,0.079816
32.146811,-0.013962,-0.051322,0.022151
32.156852,0.045736,-0.041864,0.013815
32.186911,-0.006421,-0.050526,0.074518
32.186911,-0.006421,-0.050526,0.074518
32.196952,-0.008642,-0.048080,0.010431
32.206962,0.041500,-0.050555,0.047945
32.217002,-0.034166,-0.046018,0.043485
32.227012,0.012675,-0.052461,0.019015
32.257102,0.050116,-0.016394,0.044926
32.257102,0.050116,-0.016394,0.044926
32.267142,-0.054480,-0.064061,0.033729
32.277152,0.062899,-0.016415,0.040688
32.287192,-0.040578,-0.049175,0.038111
32.297202,-0.018230,-0.059912,0.034917
32.337333,-0.009584,-0.020462,0.042605
32.337333,-0.009584,-0.020462,0.042605
32.347342,-0.007462,-0.021516,0.038333
32.357383,-0.013880,-0.037580,0.052126
32.367392,0.032010,-0.009913,0.041702
32.397483,0.017133,-0.002464,0.057719
32.397483,0.017133,-0.002464,0.057719
32.407523,-0.013890,-0.026775,0.025472
32.417533,0.001149,0.000811,0.053418
32.427573,-0.007388,0.003026,0.042722
32.437583,0.016023,-0.009861,0.041658
32.467673,-0.004180,-0.006712,0.067254
32.477713,-0.067128,-0.012764,0.035005
32.487723,0.039525,0.013588,0.035425
32.497764,-0.046889,-0.023565,0.046760
32.507773,-0.001015,0.003076,0.027785
32.527854,-0.014858,-0.003383,0.048013
32.527854,-0.014858,-0.003383,0.048013
32.537864,-0.024512,-0.017159,0.031897
32.547904,-0.009503,0.002982,0.053399
32.557914,-0.005321,-0.012934,0.028766
32.567954,-0.026623,-0.018296,0.047909
32.577964,-0.003119,0.006226,0.040613
32.598014,0.001130,-0.007747,0.056582
32.598014,0.001130,-0.007747,0.056582
32.608054,-0.022374,-0.010723,0.024456
32.618094,0.011746,-0.007650,0.028838
32.628104,-0.037255,-0.018342,0.064971
32.638144,0.024533,0.003089,0.007560
32.648154,-0.014836,-0.008839,0.072556
32.678245,-0.021262,-0.006566,0.047980
32.678245,-0.021262,-0.006566,0.047980
32.688285,-0.016002,-0.017136,0.021239
32.698295,0.003239,-0.014146,0.053353
32.708356,-0.020270,-0.023570,0.029742
32.718365,0.004265,-0.018331,0.034108
32.748455,-0.012790,-0.023655,0.042581
32.748455,-0.012790,-0.023655,0.042581
32.758495,-0.008565,-0.025704,0.021219
32.768506,0.000015,-0.020513,0.046904
32.778546,-0.012789,-0.020426,0.037255
32.788555,0.005330,-0.015100,0.027717
32.818645,-0.003181,-0.014045,0.036244
32.818645,-0.003181,-0.014045,0.036244
32.828686,-0.025600,-0.023548,0.028660
32.838696,-0.003170,-0.005461,0.027739
32.848737,0.022427,-0.001292,0.032102
32.858745,-0.030934,-0.023515,0.025440
32.888837,-0.009606,-0.015006,0.018062
32.888837,-0.009606,-0.015006,0.018062
32.898876,-0.030907,-0.016060,0.029749
32.908887,-0.007472,-0.012867,0.015942
32.918927,-0.030911,-0.013894,0.023350
32.928936,-0.013870,-0.018221,0.023376
32.948987,-0.026681,-0.026728,0.024369
32.948987,-0.026681,-0.026728,0.024369
32.959027,0.006382,-0.013985,0.017043
32.969036,-0.014937,-0.018213,0.022305
32.979077,-0.009642,-0.032128,0.025458
32.989118,-0.004323,-0.028881,0.012670
32.999126,-0.032022,-0.032060,0.026465
33.029218,-0.005384,-0.021351,0.002021
33.029218,-0.005384,-0.021351,0.002021
33.039226,0.001005,-0.032127,0.018010
33.049268,-0.044855,-0.042653,0.016766
33.059308,0.024454,-0.025745,0.007423
33.069317,-0.018175,-0.031002,0.019031
33.109417,0.019183,-0.007599,0.012836
33.109417,0.019183,-0.007599,0.012836
33.119458,0.014840,-0.027799,-0.003295
33.129498,-0.004315,-0.027828,0.015880
33.139507,-0.004326,-0.023486,0.000945
33.169599,0.030839,-0.023580,-0.003231
33.169599,0.030839,-0.023580,-0.003231
33.179607,-0.044887,-0.049015,0.007122
33.189649,0.011668,-0.018173,-0.004327
33.199689,-0.005412,-0.030958,0.000907
33.209698,-0.016130,-0.046891,-0.009880
33.239789,0.015903,-0.020251,-0.019280
33.249798,-0.067290,-0.047798,-0.008958
33.259839,-0.000063,-0.014880,-0.015026
33.269879,-0.025717,-0.038261,-0.021616
33.279888,-0.031048,-0.041468,-0.017373
33.299939,-0.032093,-0.032911,-0.019472
33.309979,-0.012927,-0.031839,-0.033301
33.319988,-0.042732,-0.028630,-0.014140
33.330029,-0.009699,-0.017941,-0.038567
33.340039,-0.017149,-0.019031,-0.028979
33.350078,-0.054449,-0.023227,-0.019488
33.380170,-0.010741,-0.012629,-0.032136
33.380170,-0.010741,-0.012629,-0.032136
33.390179,0.032987,0.005445,-0.044748
33.400220,-0.035295,-0.036119,-0.016292
33.410230,0.013775,-0.010562,-0.034195
33.420269,0.010554,-0.020173,-0.032113
33.450360,0.021222,-0.015931,-0.033131
33.450360,0.021222,-0.015931,-0.033131
33.460369,-0.026774,-0.027513,-0.035455
33.470410,0.009457,-0.034073,-0.027909
33.480420,-0.032106,-0.033948,-0.025886
33.490459,0.010534,-0.026571,-0.034279
33.520551,-0.008649,-0.027592,-0.031133
33.520551,-0.008649,-0.027592,-0.031133
33.530559,0.015839,-0.036210,-0.032174
33.540601,0.005184,-0.034029,-0.034329
33.550610,-0.014004,-0.032879,-0.038650
33.560651,0.006245,-0.031861,-0.041794
33.580701,0.010521,-0.020067,-0.054545
33.580701,0.010521,-0.020067,-0.054545
33.590741,-0.011871,-0.031813,-0.039707
33.600750,-0.009711,-0.022213,-0.038588
33.610791,0.015846,-0.016840,-0.063060
33.620801,0.005242,-0.015900,-0.028902
33.630841,0.003008,-0.026339,-0.078096
33.650891,-0.087616,-0.045338,-0.063481
33.650891,-0.087616,-0.045338,-0.063481
33.660932,0.059602,0.010840,-0.074559
33.670940,-0.028970,-0.032688,-0.068600
33.680981,-0.017204,-0.022088,-0.059972
33.690991,0.022233,-0.006065,-0.087561
33.701032,-0.026827,-0.033809,-0.058986
33.731150,-0.005541,-0.039167,-0.069634
33.741160,-0.007627,-0.017761,-0.078085
33.751200,0.056334,-0.013702,-0.076820
33.761210,-0.166324,-0.004658,-0.030392
33.771250,0.171401,0.049605,-0.218275
33.801340,0.034986,0.013399,-0.147253
33.811350,-0.036399,-0.028453,-0.055782
33.821390,0.019041,-0.002841,-0.089691
33.831400,0.023315,-0.001812,-0.084333
33.841440,-0.019341,-0.016675,-0.073839
33.861491,-0.068461,-0.040998,-0.091181
33.871531,0.001966,-0.007022,-0.097235
33.881541,0.012635,-0.000629,-0.101448
33.891581,-0.025775,-0.015455,-0.101625
33.901591,-0.021539,-0.021846,-0.108052
33.911631,0.012610,-0.010245,-0.100426
33.941721,-0.001273,-0.014421,-0.111166
33.941721,-0.001273,-0.014421,-0.111166
33.951731,-0.025813,-0.023953,-0.111279
33.961771,0.031778,-0.010257,-0.111055
33.971781,-0.036495,-0.030306,-0.115611
33.981821,0.016882,-0.000592,-0.112119
34.001871,-0.027998,-0.038857,-0.119901
34.011912,-0.041840,-0.030238,-0.126308
34.021921,0.069099,0.007878,-0.132230
34.031962,-0.021569,-0.022828,-0.126217
34.041971,0.004004,-0.022891,-0.130419
34.052012,0.006158,-0.016505,-0.127178
34.082102,-0.002388,-0.016417,-0.140020
34.082102,-0.002388,-0.016417,-0.140020
34.092112,-0.017329,-0.023844,-0.140097
34.102152,0.023228,-0.003690,-0.138821
34.112162,-0.009881,-0.024906,-0.146490
34.122202,0.020034,-0.002612,-0.138825
34.152262,-0.016283,-0.023787,-0.152912
34.152262,-0.016283,-0.023787,-0.152912
34.162302,0.014677,-0.006816,-0.149542
34.172343,0.006133,-0.006732,-0.161315
34.182352,0.006154,-0.000335,-0.159148
