time_tick,gyr_X_value,gyr_Y_value,gyr_Z_value
0.001715,0.064880,-0.049341,0.001014
0.011724,-0.033107,-0.025533,0.001924
0.021765,-0.010721,-0.022387,-0.001204
0.031774,0.005277,-0.021396,0.004186
0.041815,-0.001133,-0.025637,0.002012
0.051824,-0.005392,-0.024560,0.003074
0.061865,-0.008586,-0.023482,0.003070
0.071874,-0.003268,-0.023464,-0.004393
0.081915,-0.004371,-0.027651,-0.021507
0.091955,-0.009632,-0.020310,0.010559
0.101965,0.003126,-0.027792,0.003082
0.112005,-0.009648,-0.021338,0.002009
0.122015,-0.004317,-0.020282,0.000960
0.132055,-0.003254,-0.022431,0.003090
0.142065,-0.005393,-0.025633,0.004137
0.152105,-0.005384,-0.022429,0.004152
0.162115,-0.004319,-0.021355,0.002023
0.172155,-0.006455,-0.022411,0.000944
0.182165,-0.007521,-0.022407,0.000941
0.192205,-0.006454,-0.023489,0.003076
0.202237,-0.008582,-0.021341,0.002012
0.212277,-0.000058,-0.022437,0.002030
0.222318,-0.008585,-0.022409,0.002007
0.232327,-0.008588,-0.023477,0.002002
0.242368,-0.000062,-0.025656,0.005220
0.252377,-0.009650,-0.022405,0.002004
0.262418,-0.007515,-0.020271,0.000952
0.272427,-0.000063,-0.024578,0.003088
0.282468,-0.010719,-0.023470,0.001996
0.292478,-0.005387,-0.023497,0.004147
0.302518,-0.007521,-0.022407,0.000941
0.312528,-0.007516,-0.021344,0.002015
0.322568,-0.007520,-0.023485,0.003073
0.332608,-0.005390,-0.024565,0.004142
0.342618,-0.006450,-0.021348,0.002018
0.352658,-0.005388,-0.021341,-0.000116
0.362668,-0.003253,-0.021358,0.002026
0.372708,-0.008591,-0.024545,0.001997
0.382718,-0.003260,-0.024567,0.003079
0.392758,-0.008582,-0.021341,0.002012
0.402768,-0.006450,-0.021348,0.002018
0.412808,-0.002190,-0.022430,0.002024
0.422818,-0.007522,-0.023480,0.002005
0.432858,-0.007517,-0.022417,0.003078
0.442868,-0.006453,-0.022416,0.002013
0.452908,-0.010713,-0.021334,0.002006
0.462949,-0.000067,-0.025640,0.002015
0.472958,-0.001131,-0.025642,0.003080
0.482999,-0.014977,-0.021320,0.001994
0.493009,-0.004314,-0.019214,0.000965
0.503049,-0.003251,-0.021363,0.003095
0.513059,-0.009661,-0.025604,0.000920
0.523099,-0.005385,-0.023502,0.005215
0.533109,-0.005383,-0.020278,0.000957
0.543149,-0.007521,-0.022407,0.000941
0.553159,-0.005387,-0.022419,0.002015
0.563199,-0.007523,-0.024553,0.003068
0.573209,-0.008584,-0.023487,0.004138
0.583249,-0.004320,-0.021350,0.000955
0.593289,-0.007516,-0.021344,0.002015
0.603299,-0.007519,-0.022412,0.002010
0.613339,-0.003266,-0.026703,0.003069
0.623349,-0.010712,-0.020261,0.000943
0.633389,-0.002192,-0.022425,0.000956
0.643399,-0.005389,-0.022414,0.000947
0.653439,-0.008589,-0.024550,0.003065
0.663449,-0.001123,-0.022438,0.003095
0.673489,-0.007516,-0.020266,-0.000117
0.683499,-0.007513,-0.020277,0.002020
0.693540,-0.000063,-0.024578,0.003088
0.703549,-0.006453,-0.023494,0.004144
0.713590,-0.005383,-0.021356,0.003089
0.723630,0.001009,-0.021367,0.000970
0.733640,-0.008571,-0.018142,0.003095
0.743680,-0.008577,-0.021356,0.005216
0.753690,-0.003254,-0.022431,0.003090
0.763730,-0.006426,-0.014961,0.006321
0.773740,0.008476,-0.021412,0.005263
0.783780,-0.012840,-0.020264,0.003073
0.793790,-0.005386,-0.021346,0.000952
0.803830,-0.002189,-0.024586,0.006287
0.813840,-0.014977,-0.020242,-0.000137
0.823880,-0.000039,-0.017112,0.005260
0.833920,-0.008582,-0.021341,0.002012
0.843930,-0.010722,-0.025616,0.004122
0.853970,0.001006,-0.024591,0.005228
0.863980,-0.010706,-0.018125,0.000953
0.874020,-0.004318,-0.022433,0.004155
0.884030,-0.011782,-0.022399,0.001998
0.894071,-0.007520,-0.023485,0.003073
0.904080,-0.002187,-0.022440,0.004161
0.914121,-0.009653,-0.023473,0.001999
0.924130,-0.005380,-0.020288,0.003094
0.934171,-0.002199,-0.024555,-0.000122
0.944180,-0.012839,-0.021347,0.006273
0.954221,-0.007514,-0.021349,0.003083
0.964261,-0.004322,-0.022423,0.002018
0.974271,-0.011776,-0.021341,0.004139
0.984311,-0.001132,-0.024564,0.000949
0.994321,-0.009641,-0.021358,0.006282
1.004361,-0.006452,-0.022421,0.003081
1.014371,-0.005384,-0.022429,0.004152
1.024411,-0.009647,-0.022416,0.004140
1.034421,-0.006460,-0.025625,0.003066
1.044461,-0.006444,-0.021368,0.006290
1.054471,-0.006451,-0.023499,0.005212
1.064511,-0.006453,-0.023494,0.004144
1.074521,-0.007519,-0.023490,0.004141
1.084561,0.002080,-0.022464,0.006309
1.094602,-0.005383,-0.022434,0.005220
1.104611,-0.008577,-0.021356,0.005216
1.114652,-0.009644,-0.022426,0.006277
1.124661,-0.002188,-0.024591,0.007355
1.134702,-0.006441,-0.021378,0.008427
1.144711,-0.005380,-0.021367,0.005225
1.154752,-0.003251,-0.022441,0.005226
1.164761,-0.010712,-0.022417,0.005205
1.174802,-0.007514,-0.023506,0.007346
1.184811,-0.007505,-0.020302,0.007361
1.194852,-0.005384,-0.023507,0.006283
1.204857,-0.004326,-0.025642,0.005208
1.214897,-0.007517,-0.023495,0.005209
1.224937,-0.006442,-0.021373,0.007359
1.234947,-0.009647,-0.022416,0.004140
1.244987,-0.007515,-0.023501,0.006277
1.254997,-0.008584,-0.024565,0.006269
1.265037,-0.006453,-0.024572,0.006275
1.275047,-0.003248,-0.022452,0.007362
1.285087,-0.009643,-0.021353,0.005213
1.295097,-0.005393,-0.025633,0.004137
1.305137,-0.010714,-0.023485,0.005200
1.315147,-0.005378,-0.022450,0.008425
1.325187,-0.007513,-0.022433,0.006282
1.335228,-0.009644,-0.022426,0.006277
1.345237,-0.005384,-0.023507,0.006283
1.355278,-0.005385,-0.023502,0.005215
1.365287,-0.011773,-0.021351,0.006276
1.375328,-0.007510,-0.021365,0.006287
1.385337,-0.003251,-0.023519,0.007357
1.395378,-0.009644,-0.023504,0.008408
1.405388,-0.001116,-0.023536,0.009499
1.415428,-0.007503,-0.020307,0.008429
1.425438,-0.007513,-0.022433,0.006282
1.435478,-0.007515,-0.024579,0.008409
1.445488,-0.008577,-0.022434,0.007348
1.455528,-0.002183,-0.023528,0.008428
1.465568,-0.006444,-0.022446,0.008422
1.475578,-0.001116,-0.022458,0.007368
1.485618,-0.004315,-0.023521,0.008423
1.495628,-0.006439,-0.021383,0.009495
1.505668,-0.007508,-0.021370,0.007356
1.515678,-0.011770,-0.020283,0.006281
1.525718,-0.004321,-0.024579,0.006281
1.535728,-0.006445,-0.023519,0.009485
1.545768,-0.008571,-0.021376,0.009489
1.555778,-0.007511,-0.022438,0.007351
1.565818,-0.011770,-0.020283,0.006281
1.575828,-0.010710,-0.022422,0.006274
1.585869,-0.006445,-0.022441,0.007354
1.595909,-0.006444,-0.022446,0.008422
1.605919,-0.006441,-0.021378,0.008427
1.615959,-0.005382,-0.023513,0.007351
1.625969,-0.011773,-0.022429,0.008407
1.636009,-0.006442,-0.021373,0.007359
1.646019,-0.009631,-0.019237,0.009496
1.656059,-0.006451,-0.024577,0.007343
1.666069,-0.006444,-0.022446,0.008422
1.676109,-0.005376,-0.021377,0.007362
1.686119,-0.009631,-0.019237,0.009496
1.696159,-0.008569,-0.020303,0.008426
1.706169,-0.004314,-0.022448,0.007359
1.716209,-0.011775,-0.023497,0.008402
1.726249,-0.000047,-0.022472,0.009507
1.736259,-0.005378,-0.022450,0.008425
1.746299,-0.013900,-0.020281,0.007343
1.756309,-0.004315,-0.023521,0.008423
1.766349,-0.010708,-0.023505,0.009473
1.776359,-0.005378,-0.022450,0.008425
1.786400,-0.004313,-0.023526,0.009491
1.796409,-0.006448,-0.023509,0.007348
1.806450,-0.008576,-0.023512,0.009479
1.816459,-0.007509,-0.022443,0.008419
1.826500,-0.009635,-0.021378,0.010554
1.836540,-0.011765,-0.020298,0.009485
1.846550,-0.001119,-0.023526,0.007363
1.856590,-0.009641,-0.022436,0.008413
1.866600,-0.006439,-0.021383,0.009495
1.876640,-0.007499,-0.020322,0.011633
1.886650,-0.007501,-0.019239,0.008434
1.896690,-0.004313,-0.023526,0.009491
1.906700,-0.003243,-0.022467,0.010567
1.916740,-0.006433,-0.020326,0.011636
1.926750,-0.006437,-0.021388,0.010563
1.936790,-0.007509,-0.022443,0.008419
1.946800,-0.010701,-0.021375,0.010551
1.956840,-0.003243,-0.022467,0.010567
1.966880,-0.005373,-0.021387,0.009498
1.976890,-0.009635,-0.020300,0.008423
1.986931,-0.008572,-0.022449,0.010552
1.996940,-0.008574,-0.022444,0.009484
2.006981,-0.006440,-0.022456,0.010558
2.016990,-0.008572,-0.022449,0.010552
2.027031,-0.007512,-0.023511,0.008414
2.037040,-0.008574,-0.022444,0.009484
2.047081,-0.004309,-0.022463,0.010564
2.057090,-0.009629,-0.019242,0.010564
2.067131,-0.010701,-0.021375,0.010551
2.077140,-0.004313,-0.023526,0.009491
2.087181,-0.014968,-0.022424,0.009466
2.097221,-0.006439,-0.022461,0.011626
2.107231,-0.008563,-0.019246,0.010567
2.117271,-0.008572,-0.022449,0.010552
2.127281,-0.007508,-0.022448,0.009487
2.137321,-0.007512,-0.024589,0.010545
2.147331,-0.006436,-0.021393,0.011631
2.157371,-0.007503,-0.022463,0.012692
2.167381,-0.000053,-0.024608,0.009497
2.177421,-0.008572,-0.023527,0.012684
2.187431,-0.004310,-0.022458,0.009496
2.197494,-0.008563,-0.020324,0.012699
2.207504,-0.007503,-0.021385,0.010560
2.217544,-0.007506,-0.022453,0.010555
2.227585,-0.007510,-0.024594,0.011613
2.237594,-0.007499,-0.020322,0.011633
2.247635,-0.006434,-0.021398,0.012700
2.257644,-0.007499,-0.019244,0.009502
2.267685,-0.012828,-0.020305,0.011619
2.277694,-0.004307,-0.022468,0.011632
2.287735,-0.008569,-0.021381,0.010557
2.297745,-0.007500,-0.020317,0.010565
2.307785,-0.004312,-0.023531,0.010559
2.317795,-0.012835,-0.022436,0.010541
2.327835,-0.002176,-0.022475,0.011638
2.337875,-0.007497,-0.020327,0.012702
2.347885,-0.008572,-0.022449,0.010552
2.357925,-0.001118,-0.026761,0.013757
2.367935,-0.009630,-0.020315,0.011628
2.367935,-0.009630,-0.020315,0.011628
2.387985,-0.009633,-0.021383,0.011623
2.398025,-0.005376,-0.022455,0.009493
2.408035,-0.011766,-0.022449,0.012680
2.418075,-0.001110,-0.022479,0.011641
2.428085,-0.007501,-0.022468,0.013760
2.438125,-0.010702,-0.022448,0.011615
2.448135,-0.008567,-0.021387,0.011625
2.458175,-0.017094,-0.021359,0.011602
2.468216,-0.008567,-0.021387,0.011625
2.478225,-0.008560,-0.020334,0.014835
2.488266,-0.009635,-0.021378,0.010554
2.498276,-0.014958,-0.020303,0.012681
2.508316,-0.009635,-0.022456,0.012686
2.518326,-0.012824,-0.020315,0.013755
2.528366,-0.011754,-0.018177,0.012700
2.528366,-0.011754,-0.018177,0.012700
2.548416,-0.016025,-0.021372,0.013741
2.558426,-0.004304,-0.022478,0.013769
2.568466,-0.012822,-0.019247,0.013760
2.578476,-0.012823,-0.019242,0.012692
2.588516,-0.006438,-0.023539,0.013758
2.588516,-0.006438,-0.023539,0.013758
2.598556,-0.011767,-0.023522,0.013743
2.618606,-0.011754,-0.018177,0.012700
2.628616,-0.009630,-0.020315,0.011628
2.638656,-0.018157,-0.020287,0.011604
2.638656,-0.018157,-0.020287,0.011604
2.648666,-0.008564,-0.020319,0.011631
2.668716,-0.012824,-0.017086,0.008429
2.668716,-0.012824,-0.017086,0.008429
2.678756,-0.007503,-0.023541,0.014823
2.688766,-0.010706,-0.024588,0.012673
2.698807,-0.008542,-0.013926,0.014865
2.708816,-0.010683,-0.013889,0.008450
2.718857,-0.005367,-0.022485,0.015902
2.728897,-0.013890,-0.022467,0.018015
2.738907,-0.002152,-0.015010,0.013810
2.748947,-0.012813,-0.013887,0.009513
2.768997,-0.011747,-0.017125,0.015910
2.768997,-0.011747,-0.017125,0.015910
2.779007,-0.003206,-0.009657,0.011696
2.789047,0.001040,-0.018234,0.015940
2.799057,-0.021335,-0.018182,0.020151
2.809097,0.008514,-0.012914,0.014917
2.829147,-0.001071,-0.011830,0.018101
2.829147,-0.001071,-0.011830,0.018101
2.839187,0.013835,-0.016140,0.015985
2.849197,-0.031972,-0.009599,0.019094
2.859237,-0.007439,-0.002198,0.018129
2.869247,0.014929,-0.006537,0.017102
2.879287,-0.020220,-0.004337,0.027697
2.889297,0.001093,0.000989,0.016031
2.899338,-0.008508,-0.004340,0.020252
2.909347,-0.011686,0.000995,0.023473
2.919388,0.002181,0.005221,0.023531
2.929397,-0.001022,0.003096,0.023513
2.939438,-0.019138,0.005301,0.021336
2.949447,0.000065,0.008412,0.027814
2.969528,-0.012709,0.014866,0.026741
2.969528,-0.012709,0.014866,0.026741
2.979538,-0.009529,0.010604,0.022456
2.989578,-0.005229,0.021244,0.027860
2.999588,-0.021219,0.022384,0.023548
3.009628,0.003305,0.022269,0.031093
3.019638,-0.029736,0.022382,0.029934
3.039688,-0.026523,0.028784,0.028905
3.039688,-0.026523,0.028784,0.028905
3.049728,0.006524,0.031885,0.027942
3.059738,-0.017966,0.037279,0.033241
3.069778,-0.024386,0.031991,0.026789
3.079788,0.004396,0.031882,0.030073
3.089828,-0.032872,0.044819,0.030031
3.109878,-0.037141,0.041619,0.032141
3.109878,-0.037141,0.041619,0.032141
3.119919,-0.011578,0.037279,0.028986
3.129928,-0.010491,0.041517,0.035418
3.139969,-0.026485,0.039438,0.034296
3.149978,-0.013731,0.031966,0.024682
3.160019,-0.028608,0.040493,0.038568
3.170028,-0.018007,0.025558,0.027845
3.180069,-0.022263,0.025551,0.032106
3.190079,-0.029708,0.031988,0.031047
3.200133,-0.008438,0.016983,0.027831
3.210143,-0.032936,0.018090,0.036314
3.220183,-0.021204,0.020183,0.037424
3.230223,0.007516,0.007340,0.023556
3.240233,-0.031904,0.008501,0.030930
3.250273,-0.015939,0.000978,0.029871
3.260283,-0.006366,-0.006534,0.030930
3.270323,-0.041527,-0.003221,0.031916
3.280333,-0.002129,-0.017237,0.033027
3.290373,-0.007479,-0.023617,0.030846
3.300383,-0.031969,-0.018223,0.036145
3.320433,-0.020293,-0.034270,0.033965
3.320433,-0.020293,-0.034270,0.033965
3.330473,-0.023484,-0.032124,0.033966
3.340483,0.000988,-0.047154,0.033962
3.350523,-0.026695,-0.037458,0.035000
3.360564,-0.013915,-0.042854,0.038214
3.370573,0.003099,-0.054637,0.033933
3.380614,-0.022452,-0.046025,0.037108
3.390624,-0.003298,-0.056762,0.036042
3.400664,-0.012892,-0.056726,0.034947
3.410674,-0.022460,-0.052463,0.043486
3.420714,0.012662,-0.064269,0.031777
3.430724,-0.027783,-0.049232,0.041351
3.440764,0.007333,-0.065330,0.033894
3.460814,-0.017141,-0.054601,0.040286
3.460814,-0.017141,-0.054601,0.040286
3.470854,0.005212,-0.062124,0.034972
3.480864,-0.025675,-0.056704,0.039185
3.490904,0.008408,-0.062129,0.033912
3.500914,-0.021414,-0.055635,0.035997
3.510954,-0.003289,-0.054636,0.038188
3.531004,-0.006494,-0.056756,0.037101
3.531004,-0.006494,-0.056756,0.037101
3.541014,-0.009693,-0.055663,0.033893
3.551054,-0.006486,-0.052475,0.034985
3.561064,-0.020344,-0.053498,0.034942
3.571104,-0.004375,-0.057801,0.030693
3.581114,-0.015001,-0.050326,0.038176
3.601195,-0.020344,-0.054576,0.037073
3.601195,-0.020344,-0.054576,0.037073
3.611205,-0.012872,-0.046016,0.028589
3.621245,-0.012882,-0.051371,0.031768
3.631255,-0.005413,-0.049269,0.033935
3.641295,-0.028862,-0.048110,0.030671
3.651305,-0.002214,-0.047129,0.030749
3.661345,-0.026721,-0.045991,0.032823
3.671355,-0.012862,-0.041739,0.027541
3.681395,-0.018186,-0.043893,0.034993
3.691405,-0.008597,-0.041758,0.028620
3.701445,-0.029895,-0.037437,0.032855
3.711455,0.001007,-0.039674,0.032930
3.721495,-0.029876,-0.029957,0.031822
3.741545,-0.030936,-0.028896,0.033961
3.741545,-0.030936,-0.028896,0.033961
3.751585,0.010649,-0.023706,0.037305
3.761595,-0.018133,-0.025749,0.037216
3.771635,-0.003203,-0.021515,0.035140
3.781645,-0.018112,-0.018273,0.037251
3.791686,0.014926,-0.020531,0.040536
3.811736,0.020259,-0.018408,0.039493
3.811736,0.020259,-0.018408,0.039493
3.821745,-0.014894,-0.012964,0.041558
3.831786,0.002161,-0.010873,0.039478
3.841795,0.002157,-0.014092,0.042668
3.851836,-0.023412,-0.008654,0.039418
3.861876,0.010682,-0.013037,0.039492
3.871886,-0.018083,-0.009750,0.041564
3.881926,0.012812,-0.013039,0.038429
3.891936,-0.030836,-0.000127,0.047984
3.901976,0.013882,-0.009823,0.035243
3.911986,-0.011682,-0.007635,0.041592
3.922026,-0.004209,-0.001236,0.038438
3.932036,0.010688,-0.009823,0.037371
3.952086,0.024546,-0.007722,0.035282
3.952086,0.024546,-0.007722,0.035282
3.962126,-0.027637,0.005242,0.039472
3.972136,0.013894,-0.007708,0.039526
3.982176,0.008559,-0.007670,0.035238
3.992217,-0.025511,0.003100,0.039468
4.002226,0.024554,-0.004518,0.035298
4.012267,-0.003125,0.003012,0.042734
4.022276,0.010680,-0.010876,0.034161
4.032317,0.011777,-0.002361,0.039545
4.042326,-0.007407,-0.002299,0.039493
4.052367,0.027731,-0.013082,0.037402
4.062376,-0.001011,-0.002325,0.040578
4.072417,0.014975,-0.003450,0.041685
4.082426,0.030951,-0.005622,0.038515
4.092467,-0.010590,0.003051,0.039509
4.102477,0.017096,-0.005577,0.038477
4.112517,0.016032,-0.007735,0.043804
4.122557,-0.005269,0.001981,0.036314
4.132567,0.018138,-0.013046,0.036308
4.142607,-0.001034,-0.007639,0.035212
4.152617,-0.002066,0.000878,0.041659
4.162657,0.018111,-0.019423,0.029868
4.172667,-0.015963,-0.011872,0.037287
4.182707,-0.001025,-0.004435,0.035227
4.192717,0.019184,-0.018374,0.033081
4.202796,-0.022369,-0.011816,0.029792
4.212806,0.001072,-0.014028,0.029847
4.222846,-0.004259,-0.015079,0.029827
4.232887,-0.013866,-0.016080,0.022318
4.242896,-0.012811,-0.022511,0.026563
4.252937,-0.024515,-0.012842,0.022304
4.262946,-0.007487,-0.021436,0.021242
4.272987,-0.009603,-0.016094,0.022330
4.282997,-0.030939,-0.018115,0.012647
4.303047,-0.012803,-0.011766,0.012728
4.313087,-0.021351,-0.020287,0.013732
4.323097,-0.025613,-0.018122,0.010526
4.333137,-0.040506,-0.008468,0.011598
4.343147,-0.002166,-0.021428,0.015916
4.353187,-0.020290,-0.020275,0.010530
4.363227,-0.025613,-0.017044,0.008394
4.373237,-0.007491,-0.017113,0.010580
4.383277,-0.032004,-0.014883,0.007319
4.393287,-0.011760,-0.020313,0.012690
4.403327,-0.012820,-0.013867,0.005240
4.413337,-0.021350,-0.018136,0.010537
4.423377,-0.020288,-0.019202,0.009467
4.433387,-0.036266,-0.013796,0.006244
4.443427,-0.026691,-0.020234,0.006240
4.453437,-0.026682,-0.015953,0.004124
4.463477,-0.016036,-0.021337,0.006264
4.473487,-0.025612,-0.013815,0.003068
4.483528,-0.018163,-0.020267,0.007331
4.493568,-0.005386,-0.022424,0.003084
4.503578,-0.014966,-0.018121,0.003078
4.513618,-0.006441,-0.020300,0.006295
4.523628,-0.006449,-0.020275,0.000954
4.533668,-0.000052,-0.021379,0.004172
4.543678,-0.004322,-0.020267,-0.002244
4.553718,-0.004319,-0.021355,0.002023
4.563728,-0.000050,-0.018155,-0.000086
4.573768,-0.005403,-0.024525,-0.004404
4.583778,-0.008596,-0.023452,-0.003339
4.593818,-0.005394,-0.019165,-0.008651
4.603828,0.005241,-0.025592,-0.011857
4.613868,-0.004367,-0.026588,-0.020434
4.623908,-0.009660,-0.018068,-0.011863
4.633918,0.002029,-0.024458,-0.023611
4.653968,-0.004375,-0.025485,-0.027906
4.664008,0.007335,-0.026555,-0.035356
4.674018,-0.007576,-0.022230,-0.036445
4.684059,0.003066,-0.024370,-0.042835
4.694068,-0.006534,-0.026470,-0.043940
4.704109,-0.015051,-0.016775,-0.055668
4.714118,0.000923,-0.022172,-0.054581
4.724159,-0.003353,-0.023196,-0.061007
4.734168,0.003043,-0.019987,-0.066315
4.744209,-0.016126,-0.013512,-0.067406
4.754249,-0.003381,-0.020953,-0.083429
4.764259,-0.007637,-0.022038,-0.077037
4.774299,0.001931,-0.023071,-0.090902
4.784309,-0.006585,-0.018767,-0.091973
4.794349,-0.002321,-0.016630,-0.095156
4.804359,0.014708,-0.021994,-0.101544
4.814399,0.007244,-0.021960,-0.103701
4.824409,-0.015143,-0.018638,-0.113361
4.834449,0.002954,-0.024016,-0.117609
4.844459,0.008280,-0.024023,-0.119731
4.854499,0.000822,-0.020775,-0.124009
4.864509,0.006124,-0.029326,-0.126171
4.874549,0.006122,-0.027165,-0.131502
4.884590,0.007178,-0.026060,-0.140039
4.894599,0.010377,-0.026075,-0.138962
4.904640,0.016751,-0.027108,-0.150700
4.914649,0.031671,-0.026073,-0.153859
4.924690,0.014612,-0.027076,-0.156047
4.934699,0.022050,-0.028107,-0.168850
4.944740,0.023148,-0.017442,-0.166660
4.954749,0.029502,-0.025950,-0.178433
4.964790,0.018819,-0.026913,-0.193422
4.974799,0.026304,-0.027013,-0.177379
4.984840,0.037973,-0.026879,-0.213665
5.004890,0.026274,-0.025844,-0.198737
5.014930,0.058211,-0.034445,-0.208304
5.024940,0.031587,-0.025810,-0.209405
5.034981,0.046486,-0.030095,-0.216861
5.044990,0.072051,-0.033367,-0.220011
5.055030,0.034761,-0.025745,-0.225419
5.065040,0.070986,-0.027978,-0.229602
5.075080,0.074152,-0.036507,-0.234975
5.085090,0.057121,-0.026825,-0.238181
5.095130,0.065624,-0.030011,-0.247786
5.105140,0.081608,-0.030052,-0.249879
5.115180,0.064548,-0.028899,-0.256330
5.125221,0.072002,-0.028903,-0.260582
5.135230,0.075197,-0.023518,-0.272298
5.145271,0.068800,-0.027799,-0.265926
5.155280,0.077328,-0.021369,-0.276555
5.165321,0.094368,-0.023540,-0.280791
5.175330,0.061357,-0.017060,-0.273374
5.185371,0.102876,-0.024585,-0.291454
5.195381,0.085864,-0.013885,-0.283973
5.215454,0.102878,-0.022439,-0.293580
5.225494,0.082651,-0.012751,-0.295727
5.235504,0.091167,-0.012744,-0.303181
5.245544,0.093305,-0.012771,-0.298902
5.255584,0.085845,-0.008440,-0.306380
5.265594,0.084782,-0.007368,-0.306378
5.275634,0.089041,-0.006294,-0.310634
5.285644,0.095413,-0.010551,-0.318114
5.295684,0.054967,0.005569,-0.311740
5.305694,0.101806,-0.009489,-0.321296
5.315734,0.080492,-0.010502,-0.318155
5.325744,0.053876,0.003498,-0.324571
5.335784,0.103933,-0.009480,-0.324494
5.355834,0.065552,-0.010393,-0.331014
5.365844,0.078369,0.001328,-0.334128
5.375884,0.059181,-0.005063,-0.324597
5.385925,0.082578,-0.017904,-0.335275
5.395935,0.048506,-0.007129,-0.332114
5.405975,0.080434,-0.018935,-0.341696
5.415985,0.059130,-0.017828,-0.335340
5.426025,0.053803,-0.013508,-0.341743
5.436035,0.082556,-0.021067,-0.343836
5.446075,0.037805,-0.014499,-0.347133
5.456085,0.046303,-0.025206,-0.347161
5.466125,0.056960,-0.022006,-0.353525
5.476135,0.038845,-0.019807,-0.354633
5.496185,0.016460,-0.019724,-0.356831
5.506225,0.049453,-0.033684,-0.363215
5.516265,0.032421,-0.022924,-0.368552
5.526275,0.018572,-0.020743,-0.368580
5.536315,0.037687,-0.039978,-0.379301
5.546325,0.012165,-0.019609,-0.378207
5.566375,0.011094,-0.022819,-0.376088
5.576415,0.035586,-0.022833,-0.389908
5.586425,0.043023,-0.034630,-0.384602
5.596466,0.014278,-0.019555,-0.391019
5.606475,0.047281,-0.029243,-0.397383
5.616516,0.032383,-0.022803,-0.394189
5.626525,0.062199,-0.027126,-0.403741
5.636566,0.025963,-0.020550,-0.414492
5.646606,0.030239,-0.017370,-0.412329
5.656616,0.067521,-0.023889,-0.414393
5.666656,0.035542,-0.022691,-0.419817
5.676666,0.049392,-0.027028,-0.415526
5.686706,0.049400,-0.020590,-0.421905
5.696716,0.060052,-0.023839,-0.419755
5.706756,0.065352,-0.028072,-0.431510
5.716766,0.032337,-0.018349,-0.432624
5.726806,0.090921,-0.031354,-0.432523
5.736816,0.053600,-0.032255,-0.442245
5.746856,0.048286,-0.025820,-0.444365
5.756866,0.082371,-0.035563,-0.440044
5.766906,0.046130,-0.030045,-0.452937
5.776947,0.080225,-0.035510,-0.449664
5.786956,0.091915,-0.039749,-0.464607
5.796997,0.046092,-0.026694,-0.483900
5.807006,0.104684,-0.048344,-0.462476
5.817047,0.078048,-0.042898,-0.466796
5.827056,0.084433,-0.048274,-0.463600
5.837097,0.106807,-0.045092,-0.474205
5.847106,0.080166,-0.041786,-0.477467
5.857147,0.123836,-0.051535,-0.478461
5.867156,0.117446,-0.047222,-0.482731
5.877197,0.089746,-0.042855,-0.483855
5.887237,0.139781,-0.061147,-0.489145
5.897247,0.107840,-0.049301,-0.488109
5.917297,0.119534,-0.055706,-0.496652
5.927337,0.106740,-0.052421,-0.505218
5.937347,0.124853,-0.054615,-0.505178
5.947387,0.091806,-0.051254,-0.515936
5.957397,0.090734,-0.052308,-0.518080
5.967437,0.116284,-0.061992,-0.520192
5.977447,0.060870,-0.054296,-0.528854
5.987487,0.074710,-0.057525,-0.533104
5.997497,0.077880,-0.060678,-0.545929
6.007537,0.059750,-0.061662,-0.551325
6.017578,0.049127,-0.055276,-0.539573
6.027587,0.061870,-0.065941,-0.551339
6.037628,0.082197,-0.049016,-0.530907
6.057678,0.077853,-0.068134,-0.550237
6.067687,0.091724,-0.060688,-0.553368
6.077728,0.103432,-0.062831,-0.559755
6.087738,0.056524,-0.069102,-0.556710
6.097778,0.066120,-0.064836,-0.562004
6.107788,0.101266,-0.071333,-0.567279
6.127838,0.051153,-0.074338,-0.574909
6.137878,0.086299,-0.085142,-0.572727
6.137878,0.086299,-0.085142,-0.572727
6.157928,0.061767,-0.090392,-0.574956
6.167968,0.053240,-0.091437,-0.573916
6.177978,0.027587,-0.091121,-0.623123
6.188018,0.081925,-0.111710,-0.597433
6.198028,0.028556,-0.106977,-0.658447
6.208066,0.077540,-0.112384,-0.677565
6.218076,0.055054,-0.120602,-0.731076
6.228116,0.038987,-0.119219,-0.786661
6.238126,0.069906,-0.122584,-0.773773
6.248166,0.043217,-0.119127,-0.809082
6.258176,0.066605,-0.123323,-0.841083
6.258176,0.066605,-0.123323,-0.841083
6.278257,0.074464,-0.133226,-0.559100
6.288267,0.103160,-0.137374,-0.604974
6.298307,0.078667,-0.137360,-0.591154
6.308317,0.085029,-0.139431,-0.609306
6.308317,0.085029,-0.139431,-0.609306
6.318357,0.090370,-0.143796,-0.593289
6.348417,0.107409,-0.144883,-0.600724
6.348417,0.107409,-0.144883,-0.600724
6.358457,0.093596,-0.127736,-0.603886
6.368467,0.120224,-0.137465,-0.597449
6.388517,0.085070,-0.128787,-0.601778
6.398557,0.143682,-0.133264,-0.598433
6.398557,0.143682,-0.133264,-0.598433
6.408597,0.100008,-0.121350,-0.603838
6.418607,0.103198,-0.122413,-0.607039
6.428647,0.119210,-0.116082,-0.601624
6.438657,0.092563,-0.111679,-0.611291
6.448697,0.109634,-0.113946,-0.595231
6.468747,0.102185,-0.104265,-0.604820
6.488798,0.092588,-0.098833,-0.617639
6.488798,0.092588,-0.098833,-0.617639
6.498807,0.120302,-0.104318,-0.605838
6.518857,0.102203,-0.092472,-0.614378
6.518857,0.102203,-0.092472,-0.614378
6.528898,0.126688,-0.101080,-0.617555
6.538938,0.116041,-0.093539,-0.623958
6.568998,0.129881,-0.103231,-0.616489
6.568998,0.129881,-0.103231,-0.616489
6.579038,0.154381,-0.114041,-0.605790
6.589048,0.112854,-0.089252,-0.625015
6.599088,0.150113,-0.108626,-0.618595
6.609098,0.126736,-0.087227,-0.611080
6.629148,0.125661,-0.096891,-0.599379
6.629148,0.125661,-0.096891,-0.599379
6.639188,0.087311,-0.069896,-0.635676
6.649198,0.129906,-0.092537,-0.619642
6.669278,0.104354,-0.073150,-0.636713
6.669278,0.104354,-0.073150,-0.636713
6.679288,0.094804,-0.071099,-0.612161
6.699338,0.092647,-0.069933,-0.631389
6.699338,0.092647,-0.069933,-0.631389
6.709379,0.082049,-0.055008,-0.618529
6.719388,0.121412,-0.069991,-0.638787
6.729429,0.068197,-0.050666,-0.623888
6.739438,0.105505,-0.052959,-0.616318
6.749479,0.125673,-0.068922,-0.641975
6.779538,0.105454,-0.059260,-0.638780
6.779538,0.105454,-0.059260,-0.638780
6.789579,0.078884,-0.044329,-0.616351
6.799619,0.125768,-0.039061,-0.633288
6.809629,0.114006,-0.051828,-0.635517
6.819669,0.101288,-0.039087,-0.610923
6.839719,0.139631,-0.042360,-0.622583
6.839719,0.139631,-0.042360,-0.622583
6.849729,0.090641,-0.026162,-0.626915
6.859769,0.118294,-0.043303,-0.634397
6.869779,0.097015,-0.039043,-0.617344
6.879819,0.081044,-0.022881,-0.636539
6.889829,0.137486,-0.046620,-0.623677
6.909879,0.112996,-0.036919,-0.625835
6.919919,0.132159,-0.047685,-0.620492
6.929960,0.093824,-0.032590,-0.624800
6.939969,0.134293,-0.044468,-0.624744
6.950010,0.122601,-0.039146,-0.613001
6.960019,0.096985,-0.045410,-0.625920
6.980070,0.091679,-0.040078,-0.620568
6.990110,0.134247,-0.061560,-0.623757
7.000120,0.084220,-0.041137,-0.617389
7.010160,0.135299,-0.062596,-0.631236
7.020170,0.090601,-0.050810,-0.608872
7.030210,0.120399,-0.050765,-0.638699
7.050260,0.103376,-0.054035,-0.613124
7.060300,0.156620,-0.064837,-0.623710
7.070310,0.138522,-0.068073,-0.604548
7.080350,0.131050,-0.061550,-0.623766
7.090360,0.176875,-0.075688,-0.601273
7.100400,0.125761,-0.057352,-0.604533
7.120450,0.169394,-0.078832,-0.608786
7.130460,0.116186,-0.048757,-0.608791
7.140500,0.167268,-0.068070,-0.624765
7.150510,0.140666,-0.062735,-0.605585
7.160550,0.107644,-0.049757,-0.617365
7.170591,0.159819,-0.069159,-0.615176
7.210709,0.115130,-0.043399,-0.611973
7.210709,0.115130,-0.043399,-0.611973
7.220719,0.155609,-0.051001,-0.612966
7.230759,0.144963,-0.054236,-0.599124
7.240769,0.114070,-0.040182,-0.614098
7.260819,0.154562,-0.046751,-0.607607
7.260819,0.154562,-0.046751,-0.607607
7.270859,0.121536,-0.043455,-0.604478
7.280869,0.147114,-0.043533,-0.605476
7.290909,0.148185,-0.045708,-0.598006
7.300949,0.137509,-0.049925,-0.602328
7.310959,0.151364,-0.049970,-0.602290
7.331009,0.125780,-0.048793,-0.607697
7.331009,0.125780,-0.048793,-0.607697
7.341049,0.159907,-0.052204,-0.587322
7.351059,0.126884,-0.042455,-0.593777
7.361099,0.130042,-0.049880,-0.606622
7.371109,0.144990,-0.050015,-0.588421
7.381150,0.126880,-0.044596,-0.592719
7.401200,0.137562,-0.040399,-0.584124
7.401200,0.137562,-0.040399,-0.584124
7.411209,0.119383,-0.050919,-0.605588
7.421250,0.113027,-0.049946,-0.581032
7.431290,0.116240,-0.038154,-0.592718
7.441300,0.113004,-0.056334,-0.585335
7.451340,0.130103,-0.040380,-0.583076
7.481400,0.109849,-0.042455,-0.582074
7.481400,0.109849,-0.042455,-0.582074
7.491440,0.125870,-0.038306,-0.567055
7.501450,0.123678,-0.046726,-0.591669
7.511490,0.117359,-0.040480,-0.553202
7.521500,0.121605,-0.031824,-0.579854
7.541550,0.114170,-0.036188,-0.555327
7.541550,0.114170,-0.036188,-0.555327
7.551590,0.133335,-0.038346,-0.563830
7.561630,0.125916,-0.036297,-0.540340
7.571640,0.130164,-0.034109,-0.554204
7.581681,0.132283,-0.042695,-0.546762
7.591690,0.138708,-0.040656,-0.530711
7.621781,0.147234,-0.044991,-0.523230
7.621781,0.147234,-0.044991,-0.523230
7.631790,0.139804,-0.038599,-0.514675
7.641831,0.158954,-0.051482,-0.513615
7.651840,0.125961,-0.038595,-0.506168
7.661881,0.162206,-0.037660,-0.502858
7.681931,0.144083,-0.046205,-0.490130
7.681931,0.144083,-0.046205,-0.490130
7.691971,0.135572,-0.038687,-0.493323
7.701981,0.149417,-0.047316,-0.484780
7.712021,0.118551,-0.035498,-0.478400
7.722031,0.135575,-0.044082,-0.481598
7.732071,0.137726,-0.043072,-0.470905
7.752121,0.141979,-0.048440,-0.467714
7.762131,0.137750,-0.044226,-0.452751
7.772171,0.128186,-0.035666,-0.449532
7.782181,0.143081,-0.045326,-0.449537
7.792221,0.137780,-0.042166,-0.436718
7.802231,0.143139,-0.035816,-0.428127
7.832321,0.128239,-0.034755,-0.416413
7.832321,0.128239,-0.034755,-0.416413
7.842362,0.162316,-0.044472,-0.417433
7.852371,0.109110,-0.027329,-0.392930
7.862412,0.148469,-0.044452,-0.412130
7.872421,0.130409,-0.034883,-0.390771
7.892472,0.145310,-0.043485,-0.388634
7.892472,0.145310,-0.043485,-0.388634
7.902512,0.107003,-0.029554,-0.372651
7.912522,0.125090,-0.032745,-0.387571
7.922562,0.114471,-0.033910,-0.359832
7.932572,0.121911,-0.034947,-0.371567
7.942612,0.109136,-0.034951,-0.361988
7.972702,0.086763,-0.038138,-0.350315
7.972702,0.086763,-0.038138,-0.350315
7.982712,0.098511,-0.032866,-0.343848
7.992752,0.105955,-0.036069,-0.349184
8.002762,0.099584,-0.037202,-0.331047
8.012802,0.094246,-0.032847,-0.344928
8.032852,0.099588,-0.038290,-0.326779
8.042862,0.081473,-0.036091,-0.327887
8.052902,0.094285,-0.036203,-0.312897
8.062912,0.094277,-0.035100,-0.320369
8.072952,0.090018,-0.038330,-0.311851
8.082993,0.081511,-0.035134,-0.304382
8.103043,0.078325,-0.041622,-0.285193
8.113053,0.082594,-0.031959,-0.299023
8.123093,0.090045,-0.037338,-0.295823
8.133103,0.060226,-0.035161,-0.284145
8.143143,0.081499,-0.043713,-0.296945
8.153153,0.077308,-0.032078,-0.270196
8.173203,0.083663,-0.045977,-0.271312
8.173203,0.083663,-0.045977,-0.271312
8.183243,0.063451,-0.032028,-0.271302
8.193253,0.095398,-0.046051,-0.263803
8.203340,0.056013,-0.030997,-0.258499
8.213380,0.075175,-0.038530,-0.259550
8.223390,0.087971,-0.043977,-0.245654
8.243440,0.073055,-0.041792,-0.245685
8.253480,0.061362,-0.035387,-0.237141
8.263490,0.073077,-0.038629,-0.237124
8.273531,0.065604,-0.045027,-0.233970
8.283540,0.056073,-0.027955,-0.224302
8.293581,0.084810,-0.038697,-0.230683
8.323640,0.102958,-0.041003,-0.207143
8.323640,0.102958,-0.041003,-0.207143
8.333681,0.065690,-0.031296,-0.201859
8.343721,0.064612,-0.036642,-0.199751
8.353731,0.098723,-0.038924,-0.192190
8.363771,0.060381,-0.029189,-0.192250
8.373781,0.080629,-0.033556,-0.185805
8.383821,0.066803,-0.023910,-0.183661
8.393831,0.063585,-0.032453,-0.181574
8.403871,0.064668,-0.030356,-0.174084
8.413881,0.057225,-0.022846,-0.176205
8.423921,0.078526,-0.032562,-0.168715
8.433931,0.043388,-0.020706,-0.167688
8.453981,0.057244,-0.022907,-0.163387
8.453981,0.057244,-0.022907,-0.163387
8.464021,0.055129,-0.019722,-0.158037
8.474062,0.068963,-0.029393,-0.154839
8.484071,0.029565,-0.019684,-0.148493
8.494112,0.070040,-0.027276,-0.151622
8.504121,0.054082,-0.021930,-0.142027
8.534212,0.041297,-0.021904,-0.138857
8.534212,0.041297,-0.021904,-0.138857
8.544221,0.053020,-0.024093,-0.135631
8.554262,0.041316,-0.020886,-0.128170
8.564271,0.054069,-0.033738,-0.129264
8.574312,0.039201,-0.017701,-0.122820
8.594362,0.053044,-0.027403,-0.113214
8.594362,0.053044,-0.027403,-0.113214
8.604402,0.049842,-0.027377,-0.116427
8.614412,0.049830,-0.037034,-0.106859
8.624452,0.029602,-0.028420,-0.107942
8.634462,0.053058,-0.030677,-0.098274
8.644502,0.029604,-0.032737,-0.098349
8.664552,0.049859,-0.037125,-0.087631
8.674562,0.038135,-0.037087,-0.087664
8.684602,0.027480,-0.035985,-0.087688
8.694612,0.031752,-0.037102,-0.080204
8.704652,0.032808,-0.039231,-0.082347
8.714693,0.017907,-0.037092,-0.072764
8.734743,0.025372,-0.034976,-0.073802
8.744752,0.028579,-0.036094,-0.065253
8.754793,0.017912,-0.041415,-0.062103
8.764802,0.020057,-0.038233,-0.058877
8.774843,0.026455,-0.033957,-0.064180
8.784853,0.011553,-0.032891,-0.053534
8.804903,0.021154,-0.029718,-0.053493
8.814943,0.012630,-0.031852,-0.048185
8.824953,0.019000,-0.036104,-0.056734
8.834993,0.015841,-0.030830,-0.040694
8.845033,0.027540,-0.034021,-0.051359
8.855043,0.011578,-0.030816,-0.040706
8.865083,0.011596,-0.025486,-0.038544
8.875093,0.028602,-0.036165,-0.050298
8.885133,0.016918,-0.028712,-0.037477
8.895143,0.026497,-0.026547,-0.050258
8.905183,0.014773,-0.028665,-0.046028
8.915193,0.000965,-0.019074,-0.032134
8.925233,0.025429,-0.025460,-0.053461
8.945283,0.005199,-0.024382,-0.041761
8.955293,0.024376,-0.024419,-0.047050
8.965333,-0.017135,-0.014764,-0.027891
8.975374,0.014783,-0.022232,-0.051339
8.985384,-0.008612,-0.013704,-0.032135
8.995424,0.012686,-0.020180,-0.032107
9.005434,0.003077,-0.022250,-0.039621
9.015474,-0.001155,-0.014796,-0.032120
9.025484,0.019084,-0.020211,-0.029953
9.035524,-0.002223,-0.018016,-0.027865
9.045534,0.007346,-0.025513,-0.030010
9.055574,0.018007,-0.020172,-0.037433
9.065584,-0.010740,-0.015863,-0.025742
9.075624,-0.000115,-0.025489,-0.030031
9.085634,-0.008588,-0.010550,-0.021438
9.095674,0.003097,-0.019081,-0.032128
9.105714,-0.003285,-0.019101,-0.023600
9.115724,-0.009672,-0.014798,-0.025734
9.125764,0.000982,-0.018052,-0.022515
9.135774,-0.002220,-0.016948,-0.027860
9.145814,-0.008592,-0.013769,-0.018249
9.155824,0.004178,-0.016979,-0.025706
9.165864,0.006306,-0.022361,-0.018248
9.175874,-0.012857,-0.012672,-0.021460
9.185915,-0.006449,-0.008427,-0.020354
9.195924,-0.007515,-0.010574,-0.017162
9.205956,0.009523,-0.017047,-0.015009
9.215965,-0.005400,-0.015916,-0.018250
9.226006,0.001005,-0.012738,-0.017149
9.236046,0.003142,-0.013838,-0.011807
9.246056,-0.004333,-0.015924,-0.017179
9.256096,-0.004332,-0.020236,-0.008653
9.266106,0.022330,-0.014988,-0.007487
9.276146,0.009501,-0.025596,-0.013982
9.296196,0.004189,-0.021322,-0.010771
9.306206,0.007389,-0.026727,0.000962
9.316246,-0.002215,-0.023427,-0.012936
9.326256,-0.000088,-0.025575,-0.011872
9.336296,-0.008600,-0.023436,-0.006544
9.346306,-0.013967,-0.034073,-0.011950
9.356346,-0.028838,-0.023411,0.001946
9.366386,-0.009680,-0.025543,-0.011898
9.376396,-0.017127,-0.027716,0.000890
9.386437,-0.025660,-0.027668,-0.003406
9.396446,0.004185,-0.024541,-0.007582
9.406487,-0.006455,-0.022411,0.000944
9.416496,-0.005421,-0.034161,0.000892
9.436546,0.001017,-0.020314,0.004180
9.446587,0.003124,-0.026709,-0.000118
9.456596,-0.007530,-0.030996,0.010515
9.466637,-0.017110,-0.021308,0.000920
9.476647,-0.001159,-0.035248,0.001966
9.486687,-0.009668,-0.030969,0.006236
9.496727,0.000984,-0.029905,-0.000139
9.506737,-0.011790,-0.027758,0.006245
9.516777,-0.004361,-0.036301,0.000884
9.526787,-0.017124,-0.028804,0.005157
9.536827,-0.009675,-0.033100,0.005158
9.546837,-0.002228,-0.036313,0.001958
9.556877,-0.004348,-0.033112,0.004104
9.566887,-0.003300,-0.038445,0.001945
9.576927,-0.021424,-0.042678,0.006148
9.586937,-0.011826,-0.038417,0.001922
9.596977,-0.013961,-0.042708,0.007237
9.606987,-0.017167,-0.042672,0.001887
9.617027,-0.009679,-0.030934,-0.001241
9.627068,-0.011829,-0.040563,0.004048
9.637077,-0.021409,-0.036261,0.004042
9.647118,-0.023554,-0.040520,0.002948
9.657127,-0.018218,-0.037329,0.001909
9.667168,-0.024603,-0.033031,0.000844
9.677178,-0.006490,-0.040611,0.010472
9.687218,-0.022458,-0.032001,0.007264
9.697228,-0.012876,-0.036308,0.008338
9.717278,-0.024609,-0.030855,-0.007691
9.727318,0.010536,-0.036273,-0.015097
9.737328,0.016908,-0.036223,-0.030035
9.747368,0.047804,-0.042746,-0.026775
9.757408,0.079773,-0.042835,-0.029892
9.767418,0.058517,-0.014949,-0.040501
9.787468,0.053118,-0.029792,-0.059814
9.797508,-0.031012,0.000429,-0.069518
9.807518,0.005119,-0.017666,-0.106891
9.817558,-0.040696,-0.001402,-0.127237
9.827568,-0.076907,0.020175,-0.148599
9.837608,-0.056720,0.011693,-0.175288
9.857658,0.001884,0.021245,-0.202855
9.867668,-0.143099,0.017515,-0.218228
9.877709,0.089304,0.018729,-0.182329
9.887749,-0.176969,0.078280,-0.172101
9.897759,-0.014678,0.121003,-0.058220
9.907799,0.986333,0.714599,0.425915
9.927849,-0.145852,-0.050807,0.906270
9.937859,-0.838946,0.356287,0.660591
9.947899,-0.617211,0.087326,0.474062
9.957909,-0.085859,-0.009827,0.329794
9.967949,0.400984,-0.065630,0.279602
9.977959,0.404850,-0.196883,0.254422
9.998009,-0.233990,0.092943,0.153616
10.008049,-0.241696,0.025880,0.112685
10.018089,0.019266,-0.038022,0.122718
10.028099,0.117258,-0.056460,0.115424
10.038139,0.100172,-0.070302,0.118516
10.048149,0.017133,-0.039088,0.123775
10.068199,-0.085090,-0.005660,0.125787
10.078240,-0.077617,-0.002490,0.127959
10.088249,-0.081918,-0.012052,0.120425
10.088249,-0.081918,-0.012052,0.120425
10.098290,0.001149,-0.039046,0.125868
10.118340,-0.012654,-0.019778,0.125921
10.128349,-0.080863,-0.015255,0.119344
10.128349,-0.080863,-0.015255,0.119344
10.138390,-0.076589,-0.013148,0.122571
10.158440,-0.063855,-0.032402,0.120378
10.168480,-0.036113,-0.018589,0.116248
10.178490,-0.037181,-0.021809,0.120502
10.178490,-0.037181,-0.021809,0.120502
10.198540,-0.085136,-0.014132,0.110792
10.218619,-0.032925,-0.016413,0.105584
10.218619,-0.032925,-0.016413,0.105584
10.228659,-0.077676,-0.015230,0.111876
10.238669,-0.100090,-0.023675,0.106433
10.248709,-0.054287,-0.032357,0.104382
10.258719,-0.036135,-0.019596,0.103424
10.268759,-0.083056,-0.029055,0.103250
10.298850,-0.060683,-0.029102,0.097970
10.298850,-0.060683,-0.029102,0.097970
10.308859,-0.044658,-0.014193,0.095949
10.318900,-0.045757,-0.028088,0.099085
10.328909,-0.056419,-0.023731,0.088394
10.338950,-0.027639,-0.024913,0.092740
10.359000,-0.047877,-0.017346,0.087379
10.359000,-0.047877,-0.017346,0.087379
10.369009,-0.039340,-0.014175,0.088486
10.379050,-0.041496,-0.020555,0.084177
10.389060,-0.046834,-0.021586,0.079884
10.399100,-0.030828,-0.015235,0.081027
10.409140,-0.025532,-0.023766,0.074592
10.439200,-0.035123,-0.020505,0.069240
10.439200,-0.035123,-0.020505,0.069240
10.449240,-0.020192,-0.015199,0.066102
10.459250,-0.042563,-0.011927,0.067123
10.469290,-0.056428,-0.024779,0.084116
10.479300,-0.052109,-0.014199,0.102337
10.509390,-0.009468,-0.071459,0.212210
10.509390,-0.009468,-0.071459,0.212210
10.519400,-0.046743,-0.073580,0.234530
10.529440,-0.267219,-0.016228,0.226714
10.539481,-0.164960,-0.026070,0.205586
10.549490,-0.124573,-0.049544,0.173540
10.569540,-0.058584,-0.029003,0.075544
10.569540,-0.058584,-0.029003,0.075544
10.579581,-0.033088,-0.024516,0.012611
10.589591,-0.043730,-0.019147,0.013675
10.599631,-0.026695,-0.022375,0.007298
10.609641,-0.032009,-0.013789,0.001983
10.619681,-0.026707,-0.020184,-0.004442
10.639731,-0.027778,-0.016931,-0.014044
10.639731,-0.027778,-0.016931,-0.014044
10.649741,-0.007550,-0.026623,-0.010829
10.659781,-0.014975,-0.009477,-0.018246
10.669821,-0.003334,-0.035105,-0.026881
10.679831,-0.025649,-0.014777,-0.019369
10.689871,0.005229,-0.016937,-0.035317
10.719931,0.006255,-0.028663,-0.040710
10.719931,0.006255,-0.028663,-0.040710
10.729971,-0.016097,-0.018989,-0.038590
10.739981,-0.010778,-0.025439,-0.033265
10.750021,0.010496,-0.029684,-0.053522
10.760031,-0.014007,-0.027483,-0.050375
10.780081,-0.000172,-0.029619,-0.059961
10.780081,-0.000172,-0.029619,-0.059961
10.790122,-0.012961,-0.028499,-0.062127
10.800162,0.012601,-0.030683,-0.069544
10.810172,-0.011882,-0.023158,-0.063167
10.820212,0.003001,-0.026319,-0.082369
10.830222,0.012584,-0.033861,-0.074900
10.860312,0.002996,-0.029533,-0.080247
10.860312,0.002996,-0.029533,-0.080247
10.870322,0.001930,-0.035993,-0.068531
10.880362,-0.030021,-0.025189,-0.072841
10.890372,-0.003425,-0.041280,-0.076048
10.900412,-0.014080,-0.028329,-0.097380
10.920462,-0.003483,-0.038941,-0.118766
10.920462,-0.003483,-0.038941,-0.118766
10.930502,0.011466,-0.030462,-0.115479
10.940512,0.002917,-0.035748,-0.120869
10.950552,-0.001346,-0.033578,-0.125144
10.960562,0.015685,-0.033568,-0.138983
10.970603,-0.000283,-0.030342,-0.132603
10.990653,-0.010925,-0.026051,-0.129407
10.990653,-0.010925,-0.026051,-0.129407
11.000662,0.029506,-0.046428,-0.139006
11.010703,0.011438,-0.026063,-0.142164
11.020712,0.011350,-0.051638,-0.154036
11.030753,0.005050,-0.020678,-0.147497
11.040793,0.003961,-0.029218,-0.147541
11.060843,-0.005641,-0.030234,-0.151845
11.070853,-0.002417,-0.027096,-0.140071
11.080893,0.011403,-0.032415,-0.153945
11.090903,-0.033335,-0.033429,-0.134845
11.100943,0.002896,-0.025985,-0.152869
11.110953,0.009248,-0.036645,-0.161448
11.131003,0.025295,-0.032577,-0.129338
11.131003,0.025295,-0.032577,-0.129338
11.141043,0.046624,-0.039150,-0.109014
11.151053,0.043431,-0.038076,-0.107950
11.161093,0.061528,-0.041298,-0.116461
11.171134,0.085980,-0.054112,-0.133545
11.181143,0.075265,-0.042047,-0.193338
11.201193,0.015561,-0.032095,-0.224434
11.201193,0.015561,-0.032095,-0.224434
11.211249,0.051740,-0.049264,-0.231892
11.221258,0.012346,-0.032029,-0.236193
11.231299,0.025080,-0.048054,-0.243711
11.241308,0.036836,-0.036345,-0.243623
11.251349,0.021901,-0.037329,-0.251146
11.271399,0.031478,-0.040544,-0.255408
11.281409,0.029301,-0.053322,-0.261884
11.291449,0.030479,-0.015978,-0.255294
11.301489,0.056986,-0.051175,-0.283161
11.311499,-0.001605,-0.053226,-0.260900
11.321539,0.044285,-0.022329,-0.276651
11.351599,0.079382,-0.039444,-0.294794
11.351599,0.079382,-0.039444,-0.294794
11.361639,0.058062,-0.046901,-0.284206
11.371649,0.037830,-0.037199,-0.289557
11.381689,0.058078,-0.035103,-0.294832
11.391699,0.065511,-0.045812,-0.293794
11.411749,0.048459,-0.036064,-0.310887
11.421789,0.045288,-0.030750,-0.303393
11.431830,0.036732,-0.033860,-0.317318
11.441839,0.049498,-0.042445,-0.317323
11.451880,0.045302,-0.023254,-0.307630
11.461889,0.060144,-0.040288,-0.329034
11.481940,0.052739,-0.021051,-0.326827
11.491980,0.070774,-0.048851,-0.332250
11.501990,0.050586,-0.029593,-0.325805
11.512030,0.062271,-0.040280,-0.332233
11.522040,0.063335,-0.039200,-0.335429
11.532080,0.060124,-0.043456,-0.336527
11.552130,0.069694,-0.048802,-0.341867
11.552130,0.069694,-0.048802,-0.341867
11.562170,0.056949,-0.034898,-0.337563
11.572180,0.065436,-0.040189,-0.353588
11.582220,0.069698,-0.042354,-0.350382
11.592230,0.054819,-0.030589,-0.343958
11.602270,0.063246,-0.053999,-0.367546
11.632330,0.088857,-0.046642,-0.359963
11.632330,0.088857,-0.046642,-0.359963
11.642370,0.053699,-0.039032,-0.364297
11.652380,0.051530,-0.046445,-0.376088
11.662420,0.075036,-0.031626,-0.364203
11.672430,0.070730,-0.040095,-0.377074
11.682471,0.061139,-0.038991,-0.378163
11.692511,0.069671,-0.035805,-0.380261
11.702521,0.074990,-0.037943,-0.383461
11.712561,0.069662,-0.035774,-0.386670
11.722571,0.075005,-0.030452,-0.386630
11.732611,0.081362,-0.038971,-0.396267
11.742621,0.063225,-0.045314,-0.397415
11.762671,0.088798,-0.043226,-0.404812
11.762671,0.088798,-0.043226,-0.404812
11.772711,0.062171,-0.038888,-0.400592
11.782721,0.058972,-0.035638,-0.408063
11.792761,0.081324,-0.044234,-0.412315
11.802771,0.065320,-0.049517,-0.413452
11.812811,0.051491,-0.037705,-0.417707
11.842901,0.063185,-0.040881,-0.431577
11.842901,0.063185,-0.040881,-0.431577
11.852911,0.085502,-0.054750,-0.449741
11.862951,0.058939,-0.040922,-0.419839
11.872961,0.087655,-0.046209,-0.450762
11.883002,0.087592,-0.075093,-0.440217
11.903052,0.084419,-0.059003,-0.452968
11.903052,0.084419,-0.059003,-0.452968
11.913061,0.073805,-0.048335,-0.443333
11.923102,0.086548,-0.053615,-0.464687
11.933111,0.057799,-0.049300,-0.454064
11.943152,0.083428,-0.031229,-0.453908
11.953192,0.068390,-0.054508,-0.489311
11.973242,0.098341,-0.025867,-0.468796
11.983252,0.100368,-0.057856,-0.480692
11.993292,0.069523,-0.041797,-0.467883
12.003302,0.123847,-0.044029,-0.484835
12.013342,0.113177,-0.052573,-0.477427
12.023352,0.075893,-0.048205,-0.472169
12.043402,0.092981,-0.041909,-0.460341
12.043402,0.092981,-0.041909,-0.460341
12.053442,0.096132,-0.048236,-0.479590
12.063452,0.115359,-0.036581,-0.473073
12.073492,0.108914,-0.054715,-0.473176
12.083533,0.099364,-0.036504,-0.478458
12.093542,0.107852,-0.049337,-0.480631
12.123633,0.102543,-0.040766,-0.482742
12.123633,0.102543,-0.040766,-0.482742
12.133642,0.129181,-0.045139,-0.479484
12.143683,0.114228,-0.053609,-0.484907
12.153692,0.115307,-0.049346,-0.483815
12.163733,0.106797,-0.043983,-0.482745
12.183783,0.111048,-0.047191,-0.484885
12.193793,0.112089,-0.053577,-0.490254
12.203833,0.115265,-0.057828,-0.496674
12.213918,0.100372,-0.051408,-0.489208
12.223928,0.115262,-0.058896,-0.496679
12.233968,0.113141,-0.056769,-0.493470
12.254018,0.119566,-0.043959,-0.496597
12.254018,0.119566,-0.043959,-0.496597
12.264028,0.116289,-0.071705,-0.498873
12.274068,0.112048,-0.062064,-0.502044
12.284078,0.111029,-0.047130,-0.497704
12.294118,0.127986,-0.080276,-0.501018
12.304128,0.124835,-0.066408,-0.495620
12.324178,0.154660,-0.075069,-0.491306
12.334218,0.156814,-0.066527,-0.492328
12.344259,0.153603,-0.071861,-0.491294
12.354268,0.176004,-0.069839,-0.482676
12.364309,0.170661,-0.070854,-0.490173
12.374319,0.154683,-0.068676,-0.488071
12.394369,0.170686,-0.064472,-0.484802
12.394369,0.170686,-0.064472,-0.484802
12.404409,0.156836,-0.065520,-0.479504
12.414419,0.158945,-0.072997,-0.480602
12.424459,0.166430,-0.065556,-0.478410
12.434469,0.151561,-0.050592,-0.470903
12.444509,0.171717,-0.078368,-0.482729
12.474599,0.186618,-0.081585,-0.490180
12.474599,0.186618,-0.081585,-0.490180
12.484609,0.149408,-0.055905,-0.475206
12.494649,0.142989,-0.062271,-0.479527
12.504659,0.183466,-0.069868,-0.481588
12.514699,0.168556,-0.068777,-0.476283
12.534749,0.160021,-0.066568,-0.485910
12.544759,0.170727,-0.053828,-0.477274
12.554799,0.173851,-0.075151,-0.486980
12.564809,0.161059,-0.072949,-0.492346
12.574850,0.148361,-0.048421,-0.476242
12.584859,0.190877,-0.077277,-0.500830
12.604940,0.138753,-0.049417,-0.484819
12.614950,0.181292,-0.072959,-0.504041
12.624990,0.133375,-0.068632,-0.482788
12.635000,0.141901,-0.056812,-0.504073
12.645040,0.137597,-0.071749,-0.504156
12.655050,0.121737,-0.036551,-0.483737
12.675100,0.105673,-0.058875,-0.494569
12.685140,0.125915,-0.051375,-0.513706
12.695150,0.129085,-0.064225,-0.508417
12.705190,0.087518,-0.065163,-0.507468
12.715200,0.110988,-0.054540,-0.511625
12.725240,0.113096,-0.067397,-0.504203
12.735280,0.109935,-0.053499,-0.505214
12.745290,0.107784,-0.059894,-0.506319
12.755330,0.119493,-0.066350,-0.504180
12.765340,0.115302,-0.045018,-0.495545
12.775381,0.128052,-0.055709,-0.501970
12.785390,0.129148,-0.048267,-0.495522
12.795431,0.137684,-0.042940,-0.498678
12.815481,0.137659,-0.050400,-0.501918
12.815481,0.137659,-0.050400,-0.501918
12.825490,0.134483,-0.047227,-0.493366
12.835531,0.122759,-0.043954,-0.499793
12.845540,0.115331,-0.036495,-0.491232
12.855581,0.149417,-0.035467,-0.506088
12.865621,0.099306,-0.049248,-0.493473
12.885671,0.085426,-0.053434,-0.502077
12.895681,0.108911,-0.034237,-0.512603
12.905721,0.098246,-0.041724,-0.503054
12.915731,0.098220,-0.044872,-0.514820
12.925771,0.088653,-0.043844,-0.499886
12.935781,0.108900,-0.035280,-0.517949
12.955831,0.107856,-0.028884,-0.514717
12.955831,0.107856,-0.028884,-0.514717
12.965871,0.114226,-0.038521,-0.513677
12.975881,0.131279,-0.039655,-0.511499
12.985921,0.114234,-0.037469,-0.510468
12.995962,0.127007,-0.037459,-0.521114
13.005971,0.140913,-0.027969,-0.505008
13.026021,0.137710,-0.024709,-0.514615
13.036062,0.156857,-0.041889,-0.508234
13.046071,0.151565,-0.027983,-0.509251
13.056112,0.149464,-0.018380,-0.506007
13.066121,0.153725,-0.008692,-0.525177
13.076162,0.144094,-0.032236,-0.508224
13.096212,0.135637,-0.003344,-0.514520
13.096212,0.135637,-0.003344,-0.514520
13.106222,0.128181,-0.001179,-0.515598
13.116262,0.126052,0.005281,-0.525188
13.126302,0.119603,-0.017145,-0.521039
13.136312,0.120739,0.011711,-0.526240
13.146352,0.120758,0.013807,-0.517684
13.166402,0.118550,-0.013953,-0.517822
13.176412,0.113258,0.004260,-0.526296
13.186452,0.140983,0.007359,-0.523000
13.196462,0.119590,-0.018182,-0.527453
13.206501,0.106854,-0.003230,-0.518872
13.216511,0.133498,0.000995,-0.527324
13.236561,0.133433,-0.025728,-0.522109
13.246601,0.099328,-0.022388,-0.527529
13.256642,0.132392,-0.015030,-0.525266
13.266651,0.109936,-0.038421,-0.531848
13.276692,0.099379,-0.007468,-0.521049
13.286702,0.120567,-0.046989,-0.533996
13.306752,0.117469,-0.014977,-0.526375
13.316792,0.090726,-0.050127,-0.527684
13.326802,0.101410,-0.041628,-0.525478
13.336842,0.099216,-0.060813,-0.531984
13.346852,0.099326,-0.026690,-0.521140
13.356892,0.108866,-0.049178,-0.514811
13.376942,0.117367,-0.055588,-0.520159
13.386982,0.108837,-0.060936,-0.512730
13.396992,0.104564,-0.064120,-0.513825
13.407032,0.118429,-0.060967,-0.512704
13.417042,0.109915,-0.058823,-0.508444
13.427082,0.116256,-0.079140,-0.507454
13.447132,0.115261,-0.059969,-0.495616
13.457142,0.118353,-0.093040,-0.505378
13.467182,0.108870,-0.058886,-0.494560
13.477192,0.126902,-0.087753,-0.499988
13.487233,0.119473,-0.081367,-0.490365
13.497242,0.134358,-0.090996,-0.496778
13.517323,0.147189,-0.081472,-0.487084
13.527333,0.131208,-0.080362,-0.484986
13.537373,0.124800,-0.080301,-0.493550
13.547383,0.124804,-0.087853,-0.477562
13.557423,0.124823,-0.073909,-0.490315
13.567433,0.129097,-0.073958,-0.482826
13.577473,0.114166,-0.079264,-0.479687
13.587483,0.132295,-0.069661,-0.490274
13.597523,0.107800,-0.072872,-0.472197
13.607533,0.121649,-0.065355,-0.490283
13.617573,0.122732,-0.066492,-0.476399
13.627583,0.101444,-0.056817,-0.475343
13.637623,0.120589,-0.063216,-0.490276
13.657673,0.112122,-0.045064,-0.483804
13.667714,0.111051,-0.055815,-0.467835
13.677723,0.106808,-0.040785,-0.481662
13.687764,0.103620,-0.040805,-0.475262
13.697773,0.103590,-0.053635,-0.472118
13.707814,0.111108,-0.031223,-0.474127
13.727864,0.085533,-0.033306,-0.467799
13.737873,0.116454,-0.025905,-0.473019
13.747914,0.101458,-0.059013,-0.462535
13.757923,0.080207,-0.033299,-0.465677
13.767964,0.108999,-0.030209,-0.461310
13.778004,0.095112,-0.042989,-0.459272
13.798054,0.111079,-0.054828,-0.450738
13.808064,0.083442,-0.023733,-0.458145
13.818104,0.108932,-0.061234,-0.449706
13.828114,0.087696,-0.036643,-0.441103
13.838154,0.100482,-0.034518,-0.447467
13.848164,0.124940,-0.064586,-0.429382
13.858204,0.090883,-0.040930,-0.440046
13.868214,0.098353,-0.038829,-0.437879
13.868214,0.098353,-0.038829,-0.437879
13.888264,0.110044,-0.050614,-0.437903
13.898304,0.122882,-0.046500,-0.413279
13.898304,0.122882,-0.046500,-0.413279
13.908345,0.098381,-0.042149,-0.413326
13.928395,0.126095,-0.048712,-0.399394
13.948445,0.145303,-0.044543,-0.390775
13.948445,0.145303,-0.044543,-0.390775
13.968495,0.134653,-0.044534,-0.385464
13.978505,0.122977,-0.034950,-0.371564
13.988545,0.133596,-0.047790,-0.373732
13.988545,0.133596,-0.047790,-0.373732
14.008595,0.130432,-0.038188,-0.369422
14.018605,0.120845,-0.045714,-0.352393
14.018605,0.120845,-0.045714,-0.352393
14.028645,0.125143,-0.033990,-0.350189
14.038685,0.118753,-0.032907,-0.349133
14.048695,0.114503,-0.032933,-0.340599
14.058735,0.108068,-0.045713,-0.343882
14.068745,0.088973,-0.021159,-0.328864
14.078785,0.113438,-0.036164,-0.334208
14.108845,0.100675,-0.034053,-0.320347
14.108845,0.100675,-0.034053,-0.320347
14.118885,0.080418,-0.031810,-0.328938
14.128895,0.071957,-0.019064,-0.308605
14.138935,0.099628,-0.028725,-0.317120
14.148945,0.079384,-0.024367,-0.321428
14.169026,0.096440,-0.026588,-0.314982
14.179036,0.060240,-0.020124,-0.302233
14.189076,0.052797,-0.009385,-0.309680
14.199086,0.082589,-0.030866,-0.304359
14.209148,0.042185,-0.001956,-0.292583
14.219158,0.057009,-0.026470,-0.312954
14.249248,0.043201,-0.020114,-0.292666
14.249248,0.043201,-0.020114,-0.292666
14.259258,0.063484,-0.008433,-0.292555
14.269298,0.073045,-0.019138,-0.293647
14.279308,0.043207,-0.023363,-0.283068
14.289348,0.042162,-0.011577,-0.290492
14.309398,0.040045,-0.013772,-0.276622
14.319438,0.042160,-0.014801,-0.286235
14.329448,0.066639,-0.026623,-0.287291
14.339488,0.028346,-0.007347,-0.272351
14.349498,0.038895,-0.040431,-0.284229
14.359538,0.050695,-0.018088,-0.274476
14.389598,0.037905,-0.016969,-0.276643
14.389598,0.037905,-0.016969,-0.276643
14.399639,0.021942,-0.014837,-0.264926
14.409648,0.051667,-0.046880,-0.284224
14.419689,0.030463,-0.012693,-0.272370
14.429729,0.041055,-0.032988,-0.278846
14.449779,0.051785,-0.014939,-0.263776
14.449779,0.051785,-0.014939,-0.263776
14.459789,0.048518,-0.034095,-0.275626
14.469829,0.060266,-0.030980,-0.264897
14.479839,0.074149,-0.020341,-0.265876
14.489879,0.067701,-0.035231,-0.274510
14.499889,0.050742,-0.009621,-0.258413
14.529979,0.056102,0.001036,-0.257279
14.529979,0.056102,0.001036,-0.257279
14.539989,0.092193,-0.038474,-0.283004
14.550029,0.047556,-0.016109,-0.239225
14.560069,0.058113,-0.028751,-0.283052
14.570079,0.065659,-0.016117,-0.249857
14.600170,0.041228,0.010630,-0.243388
14.600170,0.041228,0.010630,-0.243388
14.610179,0.063467,-0.033157,-0.258489
14.620220,0.052907,-0.006500,-0.242369
14.630229,0.059278,-0.013986,-0.244523
14.640270,0.056091,-0.014011,-0.237055
14.660320,0.046479,-0.026841,-0.227528
14.660320,0.046479,-0.026841,-0.227528
14.670329,0.061440,-0.010860,-0.229547
14.680370,0.076348,-0.018404,-0.225269
14.690410,0.062484,-0.024797,-0.218928
14.700420,0.065720,-0.006617,-0.226311
14.710460,0.075242,-0.039820,-0.212555
14.740520,0.067868,-0.020679,-0.190052
14.740520,0.067868,-0.020679,-0.190052
14.750560,0.067854,-0.016327,-0.207123
14.760570,0.068907,-0.027060,-0.196489
14.770610,0.055068,-0.024915,-0.189039
14.780620,0.073182,-0.024958,-0.192194
14.810710,0.057200,-0.032463,-0.175182
14.810710,0.057200,-0.032463,-0.175182
14.820751,0.045485,-0.027065,-0.179462
14.830760,0.035912,-0.022787,-0.174127
14.840801,0.059424,-0.006910,-0.160100
14.850810,0.055091,-0.027142,-0.169822
14.870861,0.066837,-0.026172,-0.156966
14.880901,0.042317,-0.029302,-0.155981
14.890911,0.030666,-0.010107,-0.142035
14.900951,0.057268,-0.024061,-0.145233
14.910961,0.042342,-0.034768,-0.129301
14.921001,0.022106,-0.022899,-0.141051
14.941051,0.059441,-0.024200,-0.117454
14.941051,0.059441,-0.024200,-0.117454
14.951091,0.029564,-0.037996,-0.115465
14.961101,0.012555,-0.019765,-0.119699
14.971141,0.036005,-0.028466,-0.102584
14.981151,0.044501,-0.038095,-0.104742
14.991191,0.017894,-0.026276,-0.101555
15.011241,0.030676,-0.034912,-0.090879
15.021251,0.012578,-0.028456,-0.088762
15.031291,0.023231,-0.028475,-0.091937
15.041301,0.015797,-0.025303,-0.080192
15.051341,0.024340,-0.017845,-0.082270
15.061351,0.015776,-0.032778,-0.080227
15.081432,0.013664,-0.028525,-0.074872
15.091442,0.013717,-0.015765,-0.063061
15.101482,0.025402,-0.027530,-0.067357
15.111492,0.016860,-0.032837,-0.068474
15.121532,0.013736,-0.008285,-0.064094
15.131542,0.026449,-0.032858,-0.070584
15.161632,0.023256,-0.037170,-0.059932
15.161632,0.023256,-0.037170,-0.059932
15.171642,0.011599,-0.017955,-0.050259
15.181682,0.010492,-0.030746,-0.054595
15.191692,0.005149,-0.039303,-0.048241
15.201732,0.007324,-0.023291,-0.048160
15.221814,-0.001180,-0.021178,-0.037491
15.231854,0.016840,-0.048932,-0.052527
15.241864,0.000970,-0.019090,-0.028929
15.251904,0.008400,-0.024403,-0.039616
15.261914,0.007289,-0.041491,-0.038632
15.271955,-0.016099,-0.023291,-0.032201
15.292005,0.013758,-0.025589,-0.018243
15.292005,0.013758,-0.025589,-0.018243
15.302014,-0.015078,-0.037157,-0.036537
15.312055,-0.012880,-0.014753,-0.033220
15.322064,0.015907,-0.020267,-0.016075
15.332105,0.001989,-0.031873,-0.036465
15.342145,-0.024558,-0.007320,-0.016126
15.362195,-0.032066,-0.021148,-0.022621
15.372205,-0.012888,-0.027654,-0.015121
15.382245,0.015910,-0.017043,-0.020333
15.392255,-0.022473,-0.025492,-0.014069
15.402295,-0.003232,-0.009576,-0.005395
15.412305,0.020102,-0.041609,-0.022574
15.432355,0.012756,-0.006399,-0.010677
15.432355,0.012756,-0.006399,-0.010677
15.442395,0.013752,-0.034188,-0.006533
15.452405,-0.015992,-0.006396,0.008471
15.462445,0.024409,-0.029911,-0.015029
15.472486,-0.007421,0.006361,0.014965
15.482495,0.028711,-0.019276,-0.008558
15.502545,0.000009,0.003204,0.000015
15.512586,0.012737,-0.018186,-0.002187
15.522595,-0.011708,0.002144,0.006387
15.532636,0.010623,-0.011772,-0.002163
15.542645,-0.003260,-0.024567,0.003079
15.552686,-0.001028,0.007423,0.011783
15.572736,-0.003198,-0.005375,0.009580
15.582746,-0.003256,-0.022426,0.002021
15.592786,-0.002136,-0.003212,0.003184
15.602826,0.001027,-0.019272,0.009526
15.612836,-0.000060,-0.021353,-0.001169
15.622876,-0.005365,-0.020334,0.012708
15.642926,0.009576,-0.010751,0.008521
15.642926,0.009576,-0.010751,0.008521
15.652936,-0.016028,-0.020284,0.009474
15.662976,0.012784,-0.009719,0.013876
15.672986,0.012710,-0.035339,0.011618
15.683026,-0.010647,-0.005386,0.017037
15.693036,0.021295,-0.014008,0.011743
15.713086,0.002084,-0.027864,0.019102
15.723126,-0.001064,-0.006465,0.012785
15.733167,0.017004,-0.022522,0.008486
15.743176,-0.015942,0.005295,0.020277
15.753217,0.015939,-0.024675,0.012746
15.763226,-0.005324,-0.002154,0.007453
15.783277,0.010695,0.006312,0.012878
15.783277,0.010695,0.006312,0.012878
15.793317,0.013860,-0.007601,0.017094
15.803327,0.004233,-0.018229,0.012744
15.813367,0.019220,0.006290,0.011833
15.823377,0.001014,-0.027845,0.015894
15.833417,0.006425,0.005268,0.010725
15.853467,0.024549,0.005194,0.013979
15.863507,-0.000051,-0.026769,0.014828
15.873517,0.016010,0.002028,0.011804
15.883557,0.010611,-0.022507,0.009537
15.893567,-0.001025,0.000950,0.025639
15.903607,0.034086,-0.010820,0.006452
15.913617,-0.002113,-0.002205,0.016007
15.923657,0.005348,-0.004385,0.020290
15.933667,0.006372,-0.011798,0.006371
15.943707,0.014975,0.009477,0.018246
15.953717,0.012842,0.012718,0.011846
15.963757,0.015968,-0.011840,0.008534
15.973767,-0.002076,0.007371,0.023530
15.993848,0.009625,0.000941,0.020327
16.003858,0.021427,0.028664,0.021559
16.013898,0.032991,-0.021496,0.006399
16.023908,0.004327,0.011632,0.021431
16.033948,0.010651,-0.010785,0.014933
16.043958,0.024578,0.016952,0.011898
16.053998,0.004236,-0.019318,0.017012
16.064008,-0.003190,0.001063,0.003201
16.074048,0.002150,-0.003297,0.018150
16.084058,0.005339,-0.001126,0.008555
16.094098,-0.006460,-0.033166,0.016917
16.104108,0.002188,0.012742,0.013953
16.114148,-0.003230,-0.017122,0.009524
16.134198,-0.007437,-0.000052,0.016002
16.144238,-0.011749,-0.012807,0.006316
16.154248,0.015977,-0.010792,0.012812
16.164289,-0.015966,-0.000014,0.013843
16.174298,0.002108,-0.009628,0.002097
16.184339,-0.013813,0.003143,0.022409
16.204389,-0.023421,0.003224,0.011701
16.214407,-0.006323,0.020261,0.010761
16.224448,0.001997,-0.048054,-0.002358
16.234457,-0.004159,0.022304,0.028936
16.244498,-0.005410,-0.026656,-0.005482
16.254538,-0.018103,-0.005377,0.020221
16.284598,0.001103,0.003109,0.019246
16.284598,0.001103,0.003109,0.019246
16.294638,-0.004319,-0.024584,0.007349
16.304648,0.005313,-0.018278,0.022361
16.314688,-0.001089,-0.016081,0.013808
16.324698,-0.002190,-0.028893,0.013744
16.344748,0.018051,-0.032162,0.013785
16.354788,-0.015996,-0.015000,0.021249
16.364798,-0.022413,-0.020294,0.015865
16.374838,-0.006397,-0.009666,0.015960
16.384879,-0.014961,-0.021371,0.012676
16.394888,-0.024524,-0.013889,0.018026
16.414938,-0.024549,-0.024584,0.021180
16.424979,-0.008503,0.002108,0.011737
16.434988,-0.006445,-0.029982,0.021205
16.445029,-0.015981,-0.005353,0.013817
16.455038,-0.016061,-0.037417,0.019006
16.465079,-0.006389,-0.010770,0.023432
16.495139,0.001051,-0.012884,0.013829
16.505179,-0.017125,-0.038496,0.022203
16.515219,-0.012824,-0.026778,0.025475
16.525229,-0.018185,-0.033123,0.015816
16.535269,0.002145,-0.007589,0.022403
16.555319,-0.010701,-0.027838,0.022271
16.565329,-0.018152,-0.024610,0.022266
16.575369,-0.005340,-0.015030,0.020210
16.585379,-0.008568,-0.026772,0.021214
16.595419,-0.018117,-0.011795,0.022327
16.605429,-0.013918,-0.030996,0.014770
16.615469,-0.023458,-0.014971,0.020160
16.625479,-0.008510,-0.009720,0.028772
16.635519,-0.002210,-0.033139,0.008383
16.645560,-0.025593,-0.022495,0.031869
16.655569,-0.002161,-0.014979,0.007401
16.665610,-0.021372,-0.036377,0.028611
16.675620,-0.017090,-0.022447,0.015870
16.695670,-0.007473,-0.022559,0.032987
16.705710,0.012686,-0.044955,0.012641
16.715720,-0.009650,-0.036410,0.027575
16.725760,0.008491,-0.024691,0.021271
16.735770,0.014820,-0.051435,0.026503
16.745810,0.002110,-0.023638,0.028736
16.765860,0.011629,-0.048211,0.024373
16.775900,-0.004333,-0.041777,0.029700
16.785910,0.003132,-0.034275,0.019074
16.795950,-0.007547,-0.046023,0.026467
16.805960,-0.008579,-0.031043,0.021194
16.816000,0.007346,-0.054600,0.023263
16.826010,-0.004294,-0.031128,0.036160
16.836050,0.004142,-0.053491,0.016850
16.846060,-0.009645,-0.039659,0.037173
16.856100,0.006330,-0.035364,0.021214
16.866110,-0.002263,-0.063132,0.027469
16.876151,-0.005341,-0.022566,0.032993
16.886160,0.022275,-0.054674,0.028645
16.906241,0.006273,-0.056727,0.022181
16.916251,-0.006426,-0.033272,0.039349
16.926291,-0.001101,-0.030045,0.030833
16.936301,-0.000052,-0.036461,0.031874
16.946341,-0.000017,-0.023646,0.031934
16.956351,-0.013877,-0.026815,0.034018
16.976401,-0.012843,-0.034259,0.026508
16.986441,-0.019131,-0.002261,0.039460
16.996451,-0.003200,-0.017218,0.029820
17.006491,-0.038415,-0.034201,0.031778
17.016501,-0.013806,0.000966,0.030945
17.026541,-0.030914,-0.014962,0.023344
17.046591,-0.031944,0.000008,0.020208
17.046591,-0.031944,0.000008,0.020208
17.056631,-0.057535,-0.007410,0.025443
17.066641,-0.035165,-0.011754,0.025484
17.076682,-0.039458,-0.013801,0.009440
17.086691,-0.056430,0.002157,0.034037
17.096732,-0.021292,0.005379,0.006376
17.126791,-0.025629,-0.028842,0.019021
17.136832,-0.040437,0.013934,0.017046
17.146841,-0.014951,-0.016016,0.009497
17.156882,-0.036224,-0.007464,0.022297
17.166922,-0.024528,-0.006338,0.002039
17.176932,-0.039430,-0.010657,0.022273
17.186972,-0.021355,-0.014887,0.000939
17.196982,-0.057580,-0.018039,0.014711
17.207022,-0.020267,-0.007420,0.002045
17.217054,-0.027766,-0.023435,0.006222
17.227094,-0.057572,-0.018064,0.020051
17.237104,-0.003296,-0.031992,-0.007638
17.247144,-0.049068,-0.021255,0.011514
17.257154,-0.030973,-0.023394,-0.000196
17.267194,-0.004374,-0.043802,0.006190
17.277204,-0.035217,-0.021285,0.008348
17.287244,-0.030016,-0.058599,-0.008906
17.297285,-0.023504,-0.029907,0.016885
17.307294,-0.008609,-0.033103,0.005161
17.327344,-0.014997,-0.036337,0.015810
17.337385,-0.008651,-0.043742,-0.003435
17.347394,-0.012896,-0.045940,0.012566
17.357435,-0.026695,-0.024531,0.011561
17.367445,0.007309,-0.056635,0.001889
17.377485,-0.017105,-0.028865,0.017976
17.387495,-0.013948,-0.038441,0.008325
17.397535,-0.014996,-0.032030,0.008353
17.407545,-0.021405,-0.039505,0.012573
17.417585,-0.021399,-0.038447,0.014714
17.427625,-0.013923,-0.030981,0.011565
17.437635,-0.013909,-0.028870,0.016916
17.447675,-0.026702,-0.027740,0.012614
17.467725,-0.022443,-0.030973,0.015815
17.477735,-0.017127,-0.035257,0.014741
17.487775,-0.016024,-0.025685,0.022267
17.497785,-0.017088,-0.019223,0.011612
17.507825,-0.016095,-0.055622,0.029602
17.517835,-0.009591,-0.012900,0.024481
17.537916,-0.014905,-0.014007,0.036212
17.547925,0.000985,-0.039603,0.017975
17.557966,-0.021318,-0.019315,0.034033
17.567976,-0.010702,-0.026755,0.019072
17.578016,-0.012818,-0.026798,0.029748
17.588026,-0.012802,-0.019308,0.026579
17.598066,-0.021343,-0.021391,0.021204
17.598066,-0.021343,-0.021391,0.021204
17.618116,-0.024494,-0.007522,0.026602
17.628126,-0.027718,-0.016045,0.024416
17.638166,-0.023475,-0.024613,0.026524
17.638166,-0.023475,-0.024613,0.026524
17.658216,-0.037327,-0.023500,0.026491
17.678266,-0.044823,-0.031983,0.018953
17.688306,-0.023489,-0.027801,0.023304
17.698316,-0.034146,-0.023460,0.015818
17.708356,-0.041657,-0.046975,0.025300
17.718366,-0.026651,-0.012820,0.019094
17.718366,-0.026651,-0.012820,0.019094
17.738416,-0.030918,-0.018181,0.026534
17.758466,-0.032050,-0.042745,0.027483
17.758466,-0.032050,-0.042745,0.027483
17.778516,-0.034162,-0.035257,0.026444
17.788557,-0.019280,-0.043799,0.015763
17.788557,-0.019280,-0.043799,0.015763
17.798597,-0.022422,-0.031039,0.029701
17.808607,-0.026730,-0.038425,0.013631
17.828657,-0.017088,-0.024608,0.021201
17.838697,-0.012963,-0.072658,0.016712
17.848707,-0.024526,-0.020348,0.028678
17.858747,-0.003343,-0.064161,0.019983
17.868757,-0.010767,-0.055634,0.028549
17.878797,-0.003291,-0.046012,0.021138
17.898847,-0.000105,-0.053528,0.027520
17.908857,-0.003352,-0.072750,0.029557
17.918897,0.011611,-0.054619,0.024343
17.928937,0.005177,-0.068476,0.023191
17.938947,0.010521,-0.067466,0.031756
17.948987,0.021214,-0.051451,0.025452
17.969038,-0.004345,-0.051434,0.039269
17.979047,0.031789,-0.073847,0.011489
17.989088,0.009472,-0.073976,0.054155
17.999097,0.000931,-0.060977,0.021078
18.009138,0.022244,-0.064270,0.025395
18.019147,0.009455,-0.072848,0.041342
18.049238,0.025466,-0.054664,0.024381
18.049238,0.025466,-0.054664,0.024381
18.059278,0.002994,-0.089853,0.028425
18.069288,-0.012849,-0.042858,0.038217
18.079328,0.033961,-0.069673,0.030742
18.089338,0.030852,-0.044088,0.042605
18.109388,0.024296,-0.108188,0.051898
18.119428,0.039467,0.004078,0.014015
18.129438,0.015937,-0.048367,0.054294
18.139478,-0.003294,-0.060006,0.044572
18.149488,0.055326,-0.041890,0.012773
18.159528,0.022344,-0.048428,0.062857
18.189619,0.019152,-0.032277,0.037288
18.189619,0.019152,-0.032277,0.037288
18.199628,0.034000,-0.051483,0.023351
18.209669,-0.004254,-0.022635,0.046883
18.219708,0.041472,-0.044001,0.016998
18.229749,0.019166,-0.028011,0.038376
18.249799,0.049967,-0.053625,0.013771
18.249799,0.049967,-0.053625,0.013771
18.259808,-0.004269,-0.026897,0.044726
18.269849,0.010624,-0.025781,0.024476
18.279859,0.038314,-0.031191,0.020254
18.289899,-0.004258,-0.021547,0.042615
18.299909,0.034018,-0.039690,0.013793
18.319989,-0.005381,-0.036444,0.031859
18.319989,-0.005381,-0.036444,0.031859
18.329999,0.005175,-0.059852,0.006140
18.340039,-0.012704,-0.003461,0.062973
18.350049,-0.003050,0.043709,0.018358
18.360089,0.019999,-0.100527,0.015603
18.370099,-0.020227,-0.015088,0.042601
18.400189,-0.008360,0.038281,0.040750
18.400189,-0.008360,0.038281,0.040750
18.410199,-0.008650,-0.049132,0.007221
18.420239,-0.027737,-0.027833,0.032906
18.430249,-0.003184,0.002121,0.005342
18.440289,-0.031970,-0.014989,0.029751
18.460339,-0.029877,-0.022416,0.017971
18.470380,-0.014911,-0.003216,0.012762
18.480390,-0.016013,-0.016023,0.011630
18.490430,-0.019188,-0.012854,0.021250
18.500440,0.001056,-0.006436,0.005314
18.510480,-0.014896,-0.009725,0.034096
18.540540,-0.039326,0.011632,0.051221
18.540540,-0.039326,0.011632,0.051221
18.550580,-0.013849,-0.011824,0.025543
18.560590,-0.000121,-0.044858,0.000856
18.570630,-0.050012,0.011758,0.031964
18.580670,0.016925,-0.043815,-0.005502
18.610730,0.009446,-0.048042,-0.009815
18.610730,0.009446,-0.048042,-0.009815
18.620770,-0.040466,-0.020442,0.059611
18.630780,-0.018181,-0.023441,0.000907
18.640820,-0.016083,-0.038424,0.006183
18.650830,-0.032001,-0.031048,0.038220
18.670880,-0.027792,-0.045973,0.029616
18.680921,-0.017130,-0.029862,0.003016
18.690930,0.004136,-0.052393,0.010446
18.700971,-0.018171,-0.032090,0.023299
18.711011,0.009444,-0.053422,-0.001295
18.721021,-0.014996,-0.040649,0.024335
18.741072,0.006278,-0.044894,0.004078
18.751111,-0.000051,-0.034310,0.028679
18.761121,-0.010716,-0.023480,0.004132
18.771161,0.011600,-0.056739,0.021128
18.781171,-0.011725,-0.012883,0.022339
18.791211,0.014793,-0.048115,0.001950
18.811261,-0.002225,-0.035245,0.001964
18.811261,-0.002225,-0.035245,0.001964
18.821271,-0.003248,-0.027837,0.016951
18.831311,-0.017064,-0.011758,0.013784
18.841351,0.002067,-0.027808,0.007352
18.851361,-0.014930,-0.013926,0.019121
18.861402,-0.009607,-0.011772,0.011668
18.891461,-0.018122,-0.004238,0.005271
18.891461,-0.018122,-0.004238,0.005271
18.901502,0.002127,-0.011840,0.018109
18.911511,-0.014921,-0.008571,0.015941
18.921552,-0.004286,-0.010686,0.004210
18.931561,-0.019140,0.003155,0.023463
18.961652,-0.004239,0.001016,0.013880
18.961652,-0.004239,0.001016,0.013880
18.971692,0.006357,-0.014982,0.002083
18.981702,-0.020191,0.007420,0.025616
18.991742,0.006368,-0.008554,-0.002159
19.001752,-0.020232,-0.003224,0.018088
19.021802,-0.012823,-0.013857,0.003104
19.031842,-0.019149,0.004258,0.015990
19.041852,-0.021318,0.000074,-0.001127
19.051892,-0.003222,-0.014991,0.010602
19.061902,-0.014855,0.021382,0.005401
19.071942,-0.000083,-0.033131,0.005184
19.091992,-0.010698,-0.013843,-0.001163
19.102033,-0.011726,-0.008571,0.013814
19.112042,-0.001114,-0.017078,-0.001152
19.122083,-0.030925,-0.016005,0.017998
19.132092,0.005307,-0.008566,0.001042
19.142133,-0.003248,-0.021373,0.005231
19.162183,0.023429,-0.007557,0.001097
19.162183,0.023429,-0.007557,0.001097
19.172193,-0.003236,-0.018180,0.007383
19.182233,-0.024575,-0.027732,0.009415
19.192243,0.001073,-0.002180,0.008538
19.202283,-0.002209,-0.030988,0.005188
19.212317,-0.023456,-0.009591,0.011640
19.242407,-0.007464,0.001112,-0.004288
19.252447,-0.012830,-0.018144,0.006288
19.262457,-0.018154,-0.019220,0.011609
19.272497,-0.008606,-0.027728,-0.002291
19.282507,-0.017077,-0.017102,0.014827
19.312597,-0.011779,-0.027794,0.013723
19.312597,-0.011779,-0.027794,0.013723
19.322607,0.002054,-0.034231,0.010526
19.332647,-0.002167,-0.023579,0.019110
19.342657,-0.005358,-0.017125,0.011655
19.352697,0.008468,-0.030006,0.015905
19.372748,-0.009605,-0.012855,0.014868
19.372748,-0.009605,-0.012855,0.014868
19.382788,0.023414,-0.019360,0.012792
19.392798,-0.023495,-0.027781,0.019031
19.402838,-0.009583,-0.004306,0.013840
19.412848,0.008526,-0.009720,0.017069
19.422888,-0.017050,-0.009647,0.019135
19.442938,-0.010642,-0.007557,0.024504
19.452948,-0.009588,-0.004291,0.010635
19.462988,-0.009568,-0.001123,0.018128
19.472998,-0.019173,-0.005358,0.017013
19.483038,-0.011747,-0.016047,0.013778
19.493078,-0.013828,-0.000041,0.018121
19.513128,0.001074,-0.006492,0.017064
19.523138,-0.029831,-0.007480,0.021246
19.533178,-0.011742,-0.014984,0.014852
19.543188,0.001071,-0.008638,0.019190
19.553228,-0.025577,-0.009619,0.019112
19.563238,-0.008491,0.004224,0.016020
19.583288,-0.001095,-0.018217,0.013798
19.583288,-0.001095,-0.018217,0.013798
19.593329,-0.017037,-0.004302,0.018092
19.603338,-0.007458,-0.010756,0.021293
19.613379,-0.008539,-0.012858,0.014871
19.623419,-0.015962,-0.004336,0.024504
19.633429,-0.009617,-0.010663,0.003128
19.653479,-0.014855,0.009533,0.026709
19.663519,-0.009651,-0.020249,-0.002259
19.673529,-0.025580,-0.020380,0.036152
19.683569,0.012768,-0.008590,0.001063
19.693579,-0.020333,-0.044914,0.026437
19.703619,-0.025549,0.002143,0.015963
19.723669,-0.005367,-0.028948,0.027622
19.733679,-0.001100,-0.018202,0.010593
19.743719,-0.014979,-0.036393,0.027560
19.753759,0.011711,-0.014002,0.017058
19.763769,-0.005356,-0.020364,0.019117
19.773810,-0.003244,-0.030003,0.023350
19.793860,0.006365,-0.020392,0.017013
19.803869,-0.023470,-0.018165,0.018009
19.813910,-0.004282,-0.015008,0.014872
19.823919,0.000011,-0.007577,0.021328
19.833960,-0.013888,-0.021395,0.016952
19.843969,-0.008450,0.019174,0.016091
19.864019,-0.019162,-0.005394,0.024490
19.864019,-0.019162,-0.005394,0.024490
19.874060,-0.005291,0.009593,0.007508
19.884100,-0.014893,-0.003272,0.024512
19.894110,0.003241,0.011701,0.007542
19.904150,-0.015981,-0.010739,0.023406
19.914160,-0.007414,0.006341,0.019237
19.934210,-0.002089,0.000948,0.026704
19.944250,0.006437,0.005233,0.018202
19.954260,-0.002094,0.002042,0.021368
19.964300,0.005355,-0.003332,0.023500
19.974310,0.003258,0.011646,0.019292
19.984350,0.022462,0.015830,0.024706
20.004400,-0.002050,0.018060,0.021444
20.014441,0.004347,0.018035,0.022530
20.024450,0.005312,-0.017200,0.020229
20.034491,-0.015870,0.030921,0.021467
20.044500,0.007484,0.002056,0.011781
20.054541,-0.016981,0.014910,0.020320
20.074591,-0.010603,0.005248,0.026701
20.074591,-0.010603,0.005248,0.026701
20.084601,-0.018051,0.016002,0.016049
20.094641,-0.006359,0.009602,0.006437
20.104651,-0.021261,0.005282,0.026672
20.114691,-0.002139,-0.007509,0.008504
20.124701,-0.030854,0.008548,0.020251
20.144781,-0.020242,-0.005345,0.014874
20.154791,-0.009585,-0.008608,0.020229
20.164831,-0.017080,-0.018170,0.014822
20.174841,-0.001130,-0.032110,0.015868
20.184881,-0.020193,0.007425,0.024548
20.194891,-0.001162,-0.037394,0.004093
20.214968,0.000997,-0.032102,0.012669
20.225008,-0.016056,-0.035276,0.017948
20.235018,-0.031979,-0.012807,0.020147
20.245058,0.015868,-0.048149,0.008362
20.255068,-0.036259,-0.019201,0.020105
20.265109,-0.016092,-0.047013,0.015756
20.285159,-0.019294,-0.046987,0.012543
20.295199,-0.018185,-0.039586,0.027536
20.305209,-0.017134,-0.025539,-0.007646
20.315249,-0.020346,-0.050258,0.027480
20.325259,-0.007489,-0.020352,0.018043
20.335299,-0.017201,-0.058721,0.008220
20.365359,-0.027796,-0.048113,0.030674
20.375399,-0.013958,-0.042718,0.009373
20.385409,-0.001211,-0.063090,0.017858
20.395449,-0.002208,-0.039608,0.021171
20.405489,-0.011824,-0.044886,0.014710
20.425539,-0.001176,-0.047046,0.012593
20.435549,0.007384,-0.043946,0.028654
20.445589,-0.017117,-0.029902,0.011562
20.455599,-0.001177,-0.052426,0.021113
20.465640,0.008488,-0.025759,0.021266
20.475649,-0.006517,-0.053452,0.015752
20.485690,-0.007473,-0.016096,0.021267
20.495699,0.002079,-0.024615,0.009503
20.505740,-0.014975,-0.033174,0.024371
20.515749,-0.009625,-0.020330,0.014832
20.525790,-0.003281,-0.035272,0.008370
20.535830,-0.019168,-0.006452,0.022349
20.545840,0.011653,-0.031054,0.009499
20.565890,0.004212,-0.023549,0.008446
20.575930,-0.005342,-0.019332,0.026599
20.585940,-0.000062,-0.032119,0.016939
20.595980,-0.006437,-0.023544,0.014826
20.605990,-0.008566,-0.027855,0.024413
20.616030,0.020165,-0.037499,0.011629
20.636080,0.003108,-0.040662,0.014771
20.636080,0.003108,-0.040662,0.014771
20.646090,0.010645,-0.017228,0.022380
20.656130,0.002094,-0.026816,0.023380
20.666171,0.002125,-0.010757,0.014910
20.676180,0.003155,-0.022498,0.012721
20.686221,-0.020253,-0.019314,0.032967
20.706271,-0.009584,-0.008613,0.021297
20.716280,-0.021300,-0.004288,0.018080
20.726321,-0.000012,-0.003194,-0.002152
20.736330,-0.039413,-0.008557,0.029761
20.746371,-0.015971,0.011850,-0.010670
20.756380,-0.022368,-0.005358,0.019141
20.776431,-0.021372,-0.012680,-0.014006
20.786471,-0.039354,0.014953,0.026667
20.796511,-0.028801,-0.004138,-0.008645
20.806521,-0.025598,-0.006319,-0.001169
20.816561,-0.051088,0.021489,0.007438
20.826571,-0.023476,-0.006296,-0.007572
20.846621,-0.034099,0.001169,0.002048
20.856661,-0.017025,0.008584,0.003198
20.866671,-0.012811,-0.011741,0.007387
20.876711,-0.031935,0.009675,0.008503
20.886721,-0.000018,-0.005330,-0.002162
20.896761,-0.010597,0.012769,0.017123
20.916811,-0.003240,-0.020321,0.008441
20.926852,-0.023375,0.022467,0.007519
20.936861,-0.012822,-0.011706,-0.000091
20.946902,-0.025490,0.022424,0.018195
20.956911,-0.014925,-0.002092,0.001017
20.966952,-0.003245,-0.025691,0.014824
20.976962,-0.026548,0.027787,0.013945
20.987002,0.003154,-0.018185,0.004196
20.997012,-0.007422,0.006366,0.013896
21.007052,-0.017115,-0.026678,0.007304
21.017062,-0.017082,-0.018165,0.013754
21.027102,-0.022400,-0.009564,0.005234
21.037112,-0.007501,-0.017083,0.004171
21.057192,-0.037371,-0.027670,0.005107
21.067202,-0.024566,-0.021299,0.004104
21.077242,-0.018215,-0.040568,0.009372
21.087252,-0.046911,-0.013802,0.014760
21.097292,-0.006539,-0.051230,-0.002397
21.107302,-0.023455,-0.013903,0.020165
21.127352,-0.026719,-0.037382,0.018977
21.137392,-0.036246,-0.003086,-0.000115
21.147402,-0.006591,-0.070452,-0.002488
21.157442,-0.054368,-0.012709,0.014745
21.167452,-0.008662,-0.044785,-0.008782
21.177493,-0.032009,-0.024560,0.021160
21.187533,-0.008616,-0.036312,0.006214
21.197543,-0.026744,-0.039457,0.006149
21.207583,-0.017101,-0.028875,0.020112
21.217608,0.012702,-0.028850,-0.005442
21.227648,-0.021380,-0.032044,0.015813
21.237658,-0.009676,-0.040636,0.017941
21.247698,-0.004326,-0.022408,-0.001186
21.267748,-0.006443,-0.019217,0.003096
21.277758,-0.027782,-0.033076,0.012585
21.287798,-0.013895,-0.020296,0.010548
21.297808,-0.012859,-0.029901,0.008369
21.307848,-0.024539,-0.023536,0.025458
21.317888,-0.010666,-0.006403,0.006350
21.337938,-0.006437,-0.021388,0.010563
21.347948,-0.033005,0.006459,0.011690
21.357988,0.006401,-0.005426,0.013879
21.367998,-0.004275,-0.009643,0.009556
21.367998,-0.004275,-0.009643,0.009556
21.388048,-0.003174,0.001013,0.013883
21.408098,-0.011725,-0.003191,0.005294
21.418139,-0.018089,0.002119,0.015983
21.428148,0.000026,0.004226,0.009634
21.438189,-0.019217,-0.018148,0.011611
21.448229,-0.013839,-0.000006,0.010644
21.448229,-0.013839,-0.000006,0.010644
21.468279,-0.020285,-0.020291,0.013735
21.488329,-0.023550,-0.039457,0.004021
21.498339,-0.018139,-0.014958,0.013766
21.508379,0.001008,-0.023518,0.004164
21.518389,-0.003280,-0.035277,0.009438
21.528429,-0.012844,-0.024561,0.008394
21.528429,-0.012844,-0.024561,0.008394
21.548479,-0.006459,-0.029937,0.011591
21.568529,0.010569,-0.040687,0.014792
21.568529,0.010569,-0.040687,0.014792
21.578570,-0.002259,-0.046987,0.000840
21.598620,0.006269,-0.051327,0.009388
21.598620,0.006269,-0.051327,0.009388
21.608629,-0.004412,-0.057685,0.006124
21.618670,-0.009781,-0.068311,-0.001418
21.648729,0.000804,-0.090737,-0.008973
21.648729,0.000804,-0.090737,-0.008973
21.658770,-0.046993,-0.049089,0.024207
21.668780,0.013578,-0.091806,-0.017488
21.678820,-0.021537,-0.086483,0.010213
21.688830,-0.025753,-0.063998,0.000694
21.718920,-0.013018,-0.082179,-0.002561
21.718920,-0.013018,-0.082179,-0.002561
21.728960,0.009330,-0.089686,-0.011081
21.738970,-0.016143,-0.067319,0.018865
21.749010,0.015749,-0.077935,-0.016348
21.759020,-0.009824,-0.087564,0.004900
21.789110,-0.011885,-0.069468,0.018866
21.789110,-0.011885,-0.069468,0.018866
21.799120,0.015775,-0.071552,-0.010977
21.809160,-0.005496,-0.066240,0.009285
21.819170,0.011571,-0.054492,-0.002362
21.829210,0.001960,-0.060864,-0.003487
21.859301,0.006280,-0.045977,0.007277
21.859301,0.006280,-0.045977,0.007277
21.869311,0.003066,-0.050223,0.004044
21.879351,0.003027,-0.058716,-0.006679
21.889361,-0.008579,-0.026736,0.013737
21.899401,0.009449,-0.049131,-0.005547
21.929461,-0.002226,-0.036318,0.003027
21.929461,-0.002226,-0.036318,0.003027
21.939501,0.010569,-0.033145,0.000941
21.949511,-0.018162,-0.018116,0.004137
21.959551,-0.004386,-0.045917,0.001907
21.969591,0.014876,-0.017140,0.001028
21.989641,0.014839,-0.027794,-0.004363
21.989641,0.014839,-0.027794,-0.004363
21.999651,-0.016049,-0.025604,0.005176
22.009691,0.003090,-0.041680,0.004084
22.019701,-0.004325,-0.020257,-0.004381
22.029741,-0.010725,-0.030991,0.011574
22.039751,0.008435,-0.030977,-0.004396
22.069842,-0.001094,-0.014988,0.008472
22.069842,-0.001094,-0.014988,0.008472
22.079851,-0.003271,-0.026688,-0.000135
22.089892,0.019119,-0.027864,0.007399
22.099932,0.002126,-0.004299,0.004258
22.109942,0.004131,-0.045914,-0.004479
22.140032,-0.001123,-0.021360,0.000964
22.140032,-0.001123,-0.021360,0.000964
22.150042,-0.016018,-0.011700,0.000969
22.160082,0.005276,-0.019240,-0.000076
22.170092,-0.009643,-0.019197,0.000951
22.180132,-0.022439,-0.021291,0.000905
22.200182,-0.006441,-0.019222,0.004164
22.200182,-0.006441,-0.019222,0.004164
22.210192,-0.008627,-0.031970,-0.008721
22.220243,-0.012837,-0.020274,0.005210
22.230283,0.000979,-0.030968,-0.001212
22.240293,-0.021432,-0.040497,-0.003455
22.250333,-0.011794,-0.026670,0.001978
22.280393,0.005200,-0.044850,-0.004471
22.280393,0.005200,-0.044850,-0.004471
22.290434,-0.009700,-0.042716,0.006180
22.300443,0.007321,-0.050212,-0.001286
22.310484,-0.002266,-0.050196,0.001893
22.320493,-0.002245,-0.038413,-0.005529
22.350584,0.000919,-0.053400,-0.000250
22.350584,0.000919,-0.053400,-0.000250
22.360624,0.000990,-0.028848,0.002003
22.370634,-0.016153,-0.057591,-0.005658
22.380674,-0.005418,-0.033094,0.000897
22.390684,0.010511,-0.050197,-0.006618
22.410734,-0.018231,-0.041595,0.000821
22.410734,-0.018231,-0.041595,0.000821
22.420774,0.012640,-0.052350,-0.004486
22.430784,-0.014999,-0.028791,0.000891
22.440824,0.004135,-0.044852,-0.003405
22.450834,-0.000100,-0.039539,0.005154
22.460874,-0.005464,-0.046951,-0.004510
22.490965,0.009466,-0.043796,-0.004454
22.490965,0.009466,-0.043796,-0.004454
22.500974,-0.002267,-0.046962,-0.004501
22.511015,-0.015031,-0.045923,0.010423
22.521024,0.017987,-0.042730,-0.009766
22.531065,-0.007563,-0.043816,0.011522
22.561124,-0.014995,-0.030957,0.007290
22.561124,-0.014995,-0.030957,0.007290
22.571165,0.015859,-0.042734,-0.007636
22.581175,-0.005331,-0.009670,0.015963
22.591215,0.024398,-0.037417,-0.008655
22.601225,-0.009657,-0.027770,0.007319
22.621305,0.009537,-0.021400,0.002062
22.631315,-0.002174,-0.016017,0.000986
22.641355,-0.011772,-0.017044,-0.001181
22.651365,0.003191,-0.007531,0.009587
22.661405,0.005296,-0.007452,-0.008566
22.671415,-0.022439,-0.021291,0.000905
22.691465,-0.003211,-0.003178,-0.003229
22.691465,-0.003211,-0.003178,-0.003229
22.701505,-0.023455,-0.000977,-0.003274
22.711515,-0.011750,-0.008495,-0.002209
22.721555,-0.002170,-0.012798,-0.002203
22.731565,-0.023471,-0.007389,-0.002236
22.741605,-0.003225,-0.009596,-0.001123
22.761656,-0.013904,-0.018115,0.000944
22.771696,-0.013895,-0.013833,-0.001172
22.781706,-0.002183,-0.017065,-0.003291
22.791746,-0.013901,-0.017047,0.000949
22.801756,-0.002192,-0.025654,0.006282
22.811796,-0.004296,-0.010655,-0.002199
22.841856,-0.004325,-0.022413,-0.000118
22.841856,-0.004325,-0.022413,-0.000118
22.851896,-0.005344,-0.009629,0.007417
22.861906,0.019125,-0.018187,-0.006442
22.871946,-0.008522,-0.005373,0.012770
22.881986,0.004210,-0.018158,-0.002211
22.902036,0.009477,-0.039524,-0.004434
22.912046,-0.004271,-0.008580,0.010630
22.922086,-0.014944,-0.011729,0.006312
22.932096,-0.001068,-0.003221,0.004255
22.942136,-0.002159,-0.017141,0.012732
22.952146,0.003124,-0.026709,-0.000118
22.972196,0.012792,-0.005437,0.011760
22.982237,0.008502,-0.010722,0.003177
22.992246,-0.001120,-0.025677,0.010558
23.002287,0.001058,-0.008597,0.010644
23.012327,0.012668,-0.045978,0.003022
23.022337,-0.010636,-0.003265,0.020251
23.052427,-0.007475,-0.010701,0.009543
23.052427,-0.007475,-0.010701,0.009543
23.062437,0.013820,-0.020401,0.013828
23.072477,-0.003214,-0.010709,0.008486
23.082487,-0.004286,-0.012842,0.008473
23.092527,-0.003210,-0.013954,0.017017
23.112577,0.002117,-0.011810,0.011700
23.122587,-0.006373,0.002106,0.010674
23.132627,-0.007450,-0.003240,0.012783
23.142667,0.006396,-0.003255,0.006412
23.152677,-0.014932,-0.008535,0.008464
23.162718,-0.020242,-0.001038,0.007417
23.182768,0.001078,0.001034,0.006417
23.192777,-0.021287,0.004285,0.011712
23.202818,-0.001031,0.007433,0.009646
23.212827,-0.013850,-0.002126,0.007429
23.222914,-0.014862,0.017095,0.008585
23.232923,0.003218,0.005309,0.004307
23.252973,-0.008566,-0.014928,0.000974
23.263014,-0.021247,0.018163,0.012846
23.273054,0.002180,0.010612,0.012875
23.283064,-0.001086,-0.009628,0.004224
23.293104,-0.020186,0.011712,0.021364
23.303114,0.005317,-0.009674,0.009583
23.323164,-0.001029,0.006350,0.012846
23.323164,-0.001029,0.006350,0.012846
23.333204,-0.002154,-0.013927,0.010610
23.343214,-0.005305,0.001019,0.013877
23.353254,-0.002148,-0.012869,0.012752
23.363264,-0.003197,-0.006453,0.011711
23.373304,0.006399,-0.008650,0.018136
23.393354,-0.019175,-0.006431,0.018076
23.403395,0.019157,-0.017210,0.012790
23.413404,-0.017110,-0.026693,0.010509
23.423445,-0.011692,0.002093,0.017069
23.433454,0.026565,-0.033228,0.007394
23.443495,-0.024556,-0.025637,0.017970
23.463545,0.021218,-0.042847,0.012675
23.473555,-0.027703,-0.005320,0.014853
23.483595,0.020216,-0.017193,0.008520
23.493605,-0.002219,-0.040650,0.015825
23.503645,-0.016013,-0.012794,0.006305
23.513655,0.013764,-0.038536,0.009470
23.533735,-0.006438,-0.019232,0.006301
23.533735,-0.006438,-0.019232,0.006301
23.543745,0.011617,-0.046020,0.012633
23.553785,-0.024557,-0.024559,0.015839
23.563795,0.006379,-0.007511,0.003187
23.573835,0.015867,-0.045993,0.004099
23.583845,-0.040495,-0.006347,0.014813
23.603895,-0.010637,-0.005416,0.023446
23.613935,-0.012822,-0.010628,-0.002222
23.623945,-0.001112,-0.026781,0.018030
23.633985,-0.007467,-0.006419,0.007426
23.643995,0.006279,-0.041665,-0.001248
23.654035,-0.019135,0.006369,0.021342
23.684126,-0.021378,-0.020201,-0.004428
23.684126,-0.021378,-0.020201,-0.004428
23.694136,-0.011704,-0.003257,0.019180
23.704176,0.005308,-0.005337,-0.004283
23.714186,-0.034104,-0.010665,0.020151
23.724226,0.019229,0.013801,0.004391
23.734236,0.002076,-0.025683,0.009498
23.744276,-0.028760,-0.001035,0.012734
23.754286,0.026616,-0.007537,-0.005303
23.764326,-0.011768,-0.027829,0.021200
23.774336,0.002142,0.003192,0.001089
23.784376,0.004226,-0.025750,0.022322
23.794416,-0.007498,-0.018171,0.008439
23.814466,-0.008536,-0.013946,0.019138
23.814466,-0.008536,-0.013946,0.019138
23.824476,0.002051,-0.030992,0.003064
23.834516,-0.009597,-0.010724,0.015946
23.844526,-0.008571,-0.020298,0.007358
23.854566,-0.004364,-0.039525,0.005142
23.864576,-0.024487,-0.002157,0.021286
23.884626,-0.004346,-0.032039,0.003041
23.894667,-0.038352,-0.002082,0.014839
23.904676,-0.001131,-0.027798,0.007343
23.914717,-0.001095,-0.016061,0.009535
23.924757,-0.024552,-0.022418,0.014781
23.934767,-0.008486,0.005286,0.017093
23.954817,-0.040474,-0.001027,0.019111
23.964857,0.007413,-0.013877,-0.006454
23.974867,-0.004286,-0.018227,0.018062
23.984907,-0.021300,0.005404,0.001035
23.994917,-0.002181,-0.020304,0.004171
24.004957,-0.009576,-0.000019,0.010656
24.025007,-0.008523,-0.008602,0.018095
24.035017,-0.001055,0.002124,0.003212
24.045057,-0.017011,0.005309,0.018138
24.055098,0.011714,-0.005393,0.003212
24.065107,-0.009591,-0.006437,0.012762
24.075148,-0.006365,0.002081,0.016015
24.095198,-0.014895,-0.002189,0.021313
24.105207,0.001084,0.004248,0.004296
24.115248,-0.015962,0.001049,0.014916
24.125257,-0.009574,0.002127,0.008529
24.135298,-0.012765,0.002117,0.012793
24.145307,-0.009534,0.016005,0.009663
24.155348,-0.019219,-0.020294,0.013738
24.165358,-0.022306,0.021376,0.011790
24.175398,-0.000046,-0.021399,0.008444
24.185438,-0.022332,0.010686,0.013876
24.195448,-0.016029,-0.019206,0.007342
24.205488,-0.005339,-0.016108,0.022342
24.215498,-0.023460,-0.007425,0.005241
24.235563,-0.024523,-0.012816,0.016963
24.245603,-0.012858,-0.034213,0.016894
24.255613,-0.005404,-0.033139,0.010510
24.265653,-0.011825,-0.048115,0.020036
24.275663,-0.025563,-0.007509,0.024463
24.285703,0.015875,-0.050325,0.016897
24.305753,-0.019275,-0.047048,0.025361
24.315794,0.003166,-0.021455,0.018067
24.325803,-0.002192,-0.038580,0.029721
24.335844,-0.016107,-0.051274,0.013600
24.345853,-0.025626,-0.036393,0.035008
24.355894,-0.002137,-0.011826,0.018098
24.375944,-0.039391,-0.002165,0.032996
24.385954,-0.005457,-0.055591,0.015745
24.395994,-0.013864,-0.024705,0.039369
24.406004,-0.021327,-0.014978,0.020166
24.416044,-0.015027,-0.050245,0.021085
24.426054,-0.024493,-0.012913,0.037259
24.446134,-0.011797,-0.046050,0.035001
24.456144,-0.021294,-0.006465,0.026616
24.466184,-0.003301,-0.053523,0.028579
24.476194,-0.005339,-0.022571,0.034061
24.486234,-0.004313,-0.038609,0.037193
24.496244,-0.014904,-0.031245,0.068177
24.516294,-0.008536,-0.017176,0.024464
24.516294,-0.008536,-0.017176,0.024464
24.526334,-0.017105,-0.052561,0.060592
24.536344,0.006295,-0.043872,0.013697
24.546384,-0.017993,-0.010033,0.101383
24.556394,-0.014956,-0.025693,0.023338
24.566435,-0.013868,-0.026845,0.040427
24.586485,-0.020326,-0.034164,0.011533
24.596525,-0.031945,-0.019377,0.054299
24.606535,-0.006469,-0.040677,0.024359
24.616575,-0.039420,-0.012844,0.032945
24.626585,-0.017098,-0.029963,0.024380
24.636625,-0.013910,-0.037484,0.031831
24.656675,-0.008569,-0.028923,0.024408
24.666685,-0.020258,-0.018221,0.027631
24.676725,-0.024596,-0.045978,0.028556
24.686735,-0.027722,-0.018186,0.025474
24.696775,-0.023504,-0.036370,0.028605
24.706815,-0.033094,-0.034193,0.026452
24.726865,-0.008563,-0.027865,0.026550
24.736875,-0.040562,-0.041685,0.034942
24.746915,-0.033035,-0.018219,0.036142
24.756925,-0.021370,-0.033153,0.024353
24.766966,-0.036291,-0.040646,0.038163
24.776975,-0.020272,-0.022487,0.026543
24.797025,-0.031992,-0.023537,0.030778
24.807066,-0.013895,-0.034301,0.036119
24.817075,-0.004198,0.006270,0.032064
24.827116,-0.024546,-0.031057,0.035036
24.837156,-0.019189,-0.019312,0.031902
24.847166,-0.021315,-0.016091,0.029775
24.867216,0.005320,-0.017226,0.025570
24.877256,-0.023387,0.000962,0.038396
24.887266,-0.014904,-0.009699,0.028755
24.897306,0.004247,-0.020431,0.026620
24.907316,-0.030818,0.010587,0.040557
24.917356,-0.009620,-0.022502,0.022299
24.937406,0.008567,-0.002310,0.030991
24.947416,-0.018090,-0.005417,0.028766
24.957456,0.005391,0.001941,0.037412
24.967497,0.024572,0.001889,0.035328
24.977506,0.021349,-0.009868,0.039536
24.987547,0.009686,0.007212,0.049199
25.007597,0.029880,-0.008833,0.040633
25.017606,0.020368,0.013564,0.053531
25.027647,0.029830,-0.019446,0.026696
25.037656,0.003318,0.016844,0.049227
25.047697,0.020320,0.006175,0.035336
25.057706,0.010657,-0.021575,0.038383
25.067747,-0.016916,0.023322,0.048133
25.077757,0.028791,-0.008758,0.025675
25.087797,-0.024428,0.004119,0.049090
25.097837,-0.006348,-0.002282,0.035223
25.107847,-0.003156,-0.007662,0.041615
25.117887,-0.014864,0.000944,0.036283
25.127897,-0.021275,-0.008677,0.042629
25.147947,-0.005340,-0.020415,0.029799
25.157987,-0.027665,-0.008671,0.045816
25.157987,-0.027665,-0.008671,0.045816
25.178037,-0.015968,-0.018320,0.045802
25.178037,-0.015968,-0.018320,0.045802
25.198087,-0.011723,-0.022586,0.041521
25.218156,-0.031965,-0.027930,0.056395
25.228197,0.011610,-0.062155,0.037126
25.238206,-0.015784,-0.021058,0.172907
25.248247,-0.034028,-0.043224,0.130024
25.258257,-0.043768,-0.026566,0.001890
25.268297,0.000047,-0.041082,0.105559
25.278307,-0.082923,-0.084415,0.292062
25.288347,-0.039390,-0.037715,0.097988
25.298357,-0.096748,-0.039223,0.230281
25.308397,-0.080056,-0.076914,0.059235
25.318407,0.027701,-0.046380,0.077837
25.318407,0.027701,-0.046380,0.077837
25.328447,-0.104165,-0.009176,0.204766
25.338457,-0.048014,-0.075080,0.100992
25.378587,-0.004209,-0.020626,0.073598
25.378587,-0.004209,-0.020626,0.073598
25.388597,0.024431,-0.052600,0.040411
25.398637,-0.016886,-0.011246,0.131290
25.408647,-0.006399,-0.029051,0.050051
25.428697,-0.039317,0.000832,0.076807
25.428697,-0.039317,0.000832,0.076807
25.438737,0.050108,-0.026066,0.057699
25.448747,-0.060695,-0.024755,0.081968
25.458788,0.024508,-0.030224,0.051199
25.468797,-0.032951,-0.008790,0.074642
25.478838,-0.006336,-0.009859,0.056551
25.498888,-0.022290,-0.003450,0.067220
25.498888,-0.022290,-0.003450,0.067220
25.508928,-0.007466,-0.031199,0.053242
25.518938,-0.028742,-0.028022,0.073495
25.528978,-0.019128,-0.007656,0.051185
25.538988,-0.025556,-0.022612,0.056438
25.549028,-0.051090,-0.012978,0.069231
25.579088,-0.015945,-0.016240,0.057563
25.579088,-0.015945,-0.016240,0.057563
25.589128,-0.048976,-0.011851,0.055356
25.599138,-0.013861,-0.033329,0.056419
25.609178,-0.031979,-0.032197,0.055306
25.619218,-0.031957,-0.009644,0.028708
25.639268,-0.063967,-0.033126,0.047736
25.649278,-0.084095,0.024725,0.023385
25.659319,-0.078832,-0.006323,0.036071
25.669328,-0.090622,-0.030853,0.036991
25.679369,-0.057528,0.001184,0.014802
25.689378,-0.084215,-0.020139,0.025309
25.709428,-0.072463,-0.005185,0.016867
25.719469,-0.088424,0.000171,0.024325
25.729478,-0.041681,-0.040436,-0.002443
25.739519,-0.081010,-0.014789,0.021070
25.749559,-0.034120,-0.012770,0.013732
25.759569,-0.026703,-0.028813,0.013677
25.789659,-0.033065,-0.025665,0.029697
25.789659,-0.033065,-0.025665,0.029697
25.799669,-0.047967,-0.013828,0.021166
25.809709,-0.038405,-0.022383,0.016879
25.819719,-0.022456,-0.029855,0.005138
25.829759,-0.045838,-0.011674,0.015841
25.849809,-0.023530,-0.029826,-0.000206
25.859819,-0.021356,-0.013809,-0.001193
25.869859,-0.007518,-0.019183,-0.003316
25.879900,-0.017089,-0.007369,-0.010764
25.889909,-0.006430,-0.005253,-0.013929
25.899950,-0.000084,-0.021278,-0.017192
25.930009,0.003119,-0.010533,-0.033156
25.930009,0.003119,-0.010533,-0.033156
25.940050,-0.002205,-0.001916,-0.044880
25.950059,-0.026700,0.007800,-0.050243
25.960100,0.014790,-0.011482,-0.066243
25.970110,-0.036340,-0.003866,-0.061007
25.990160,-0.012885,0.005730,-0.073715
25.990160,-0.012885,0.005730,-0.073715
26.000200,-0.018232,0.006881,-0.087611
26.010240,-0.005481,-0.003809,-0.094036
26.020250,-0.026811,-0.005850,-0.099446
26.030290,-0.008738,-0.017616,-0.107997
26.040300,-0.037439,0.008093,-0.104750
26.060350,-0.039634,-0.012166,-0.110193
26.070390,-0.020482,-0.019668,-0.117653
26.080400,-0.013004,-0.008973,-0.126128
26.090440,-0.035438,-0.025972,-0.129475
26.100450,-0.028028,-0.040917,-0.135934
26.110490,-0.033295,-0.018473,-0.135843
26.130540,-0.047194,-0.036603,-0.131694
26.130540,-0.047194,-0.036603,-0.131694
26.140581,-0.024792,-0.027044,-0.135860
26.150590,-0.014139,-0.027063,-0.139035
26.160631,-0.024826,-0.040942,-0.132721
26.170641,0.013537,-0.037817,-0.142214
26.180681,-0.002351,-0.003607,-0.138891
26.200731,0.006152,-0.013256,-0.136777
26.210741,0.007204,-0.019677,-0.134668
26.220788,0.010338,-0.035646,-0.147554
26.230798,0.014611,-0.024920,-0.160310
26.240838,0.014613,-0.020618,-0.166698
26.250848,0.031656,-0.020643,-0.173061
26.270928,0.010323,-0.019440,-0.187001
26.280938,0.011413,-0.009827,-0.188021
26.290978,-0.014220,-0.024654,-0.196707
26.300988,0.022060,-0.009826,-0.195469
26.311028,0.013538,-0.007657,-0.196550
26.321038,0.022023,-0.015095,-0.210449
26.341088,0.036911,-0.022578,-0.218989
26.351128,0.038013,-0.006538,-0.224251
26.361138,0.029510,-0.000123,-0.219971
26.371179,0.032656,-0.018283,-0.221116
26.381188,0.049716,-0.008666,-0.233842
26.391229,0.037998,-0.006492,-0.233864
26.411279,0.041152,-0.016058,-0.245651
26.411279,0.041152,-0.016058,-0.245651
26.421319,0.053948,-0.009657,-0.253063
26.431329,0.046429,-0.027762,-0.258511
26.441369,0.036856,-0.020250,-0.259570
26.451379,0.047462,-0.030893,-0.274546
26.461419,0.050705,-0.019197,-0.265936
26.491479,0.037874,-0.027643,-0.277762
26.491479,0.037874,-0.027643,-0.277762
26.501519,0.048505,-0.029748,-0.291629
26.511529,0.057057,-0.022315,-0.288365
26.521569,0.043186,-0.027605,-0.289497
26.531609,0.052693,-0.044601,-0.315188
26.551659,0.057005,-0.029689,-0.309765
26.561669,0.064477,-0.024364,-0.311855
26.571710,0.060234,-0.016875,-0.311832
26.581719,0.034562,-0.042351,-0.326978
26.591760,0.030381,-0.012435,-0.326848
26.601769,0.066593,-0.025398,-0.320400
26.621819,0.041011,-0.015613,-0.339652
26.621819,0.041011,-0.015613,-0.339652
26.631860,0.045264,-0.019903,-0.338593
26.641869,0.038803,-0.034753,-0.355772
26.651910,0.026047,-0.022969,-0.354684
26.661950,0.046288,-0.024082,-0.358906
26.671960,0.067612,-0.024177,-0.353506
26.692010,0.047352,-0.017618,-0.371691
26.702050,0.078200,-0.039072,-0.372775
26.712060,0.065476,-0.014463,-0.373762
26.722100,0.060127,-0.024077,-0.369550
26.732110,0.071770,-0.045403,-0.384573
26.742150,0.073974,-0.020862,-0.381246
26.762200,0.100593,-0.028409,-0.384413
26.762200,0.100593,-0.028409,-0.384413
26.772210,0.121887,-0.033793,-0.389721
26.782250,0.114392,-0.045511,-0.390865
26.792291,0.104853,-0.026257,-0.390801
26.802300,0.115452,-0.039031,-0.406855
26.812341,0.125017,-0.026049,-0.448427
26.832391,0.096246,-0.042132,-0.415468
26.842400,0.083526,-0.020767,-0.407925
26.852441,0.103763,-0.027256,-0.404695
26.862451,0.115548,-0.000555,-0.413082
26.872491,0.093058,-0.036767,-0.418656
26.882501,0.089962,0.001704,-0.421688
26.902551,0.097453,0.008047,-0.413091
26.902551,0.097453,0.008047,-0.413091
26.912591,0.077150,-0.004646,-0.424958
26.922631,0.093091,-0.013171,-0.439909
26.932641,0.084647,0.009217,-0.425940
26.942681,0.094226,0.014612,-0.444047
26.952691,0.102684,-0.008895,-0.447340
26.982781,0.113419,0.018831,-0.446111
26.982781,0.113419,0.018831,-0.446111
26.992791,0.089857,-0.008737,-0.471943
27.002831,0.083620,0.037103,-0.450379
27.012841,0.119734,0.012600,-0.487783
27.022881,0.088909,0.025364,-0.455761
27.042931,0.129156,-0.013820,-0.553043
27.042931,0.129156,-0.013820,-0.553043
27.052972,0.118612,0.016015,-0.531567
27.062982,0.146273,0.017160,-0.566736
27.073022,0.115552,0.045750,-0.494047
27.083032,0.098438,0.016916,-0.482480
27.093072,0.101584,0.005219,-0.495346
27.113122,0.082462,0.022318,-0.484635
27.123132,0.088736,0.009755,-0.542361
27.133172,0.073853,0.021531,-0.538074
27.143182,0.063248,0.006316,-0.475150
27.153222,0.079075,-0.005079,-0.560618
27.163232,0.084515,0.006403,-0.508206
27.183312,0.069458,-0.030819,-0.530856
27.193322,0.063117,-0.015888,-0.522257
27.203362,0.067323,-0.030802,-0.532998
27.213372,0.098253,-0.024510,-0.529678
27.223442,0.081210,-0.028792,-0.515859
27.233452,0.097152,-0.037322,-0.529742
27.253502,0.099275,-0.051303,-0.510574
27.263543,0.132317,-0.043879,-0.522198
27.273552,0.154622,-0.069562,-0.526531
27.283593,0.089671,-0.051237,-0.518078
27.293602,0.135454,-0.058780,-0.535079
27.303643,0.122646,-0.067297,-0.531950
27.323693,0.134368,-0.064096,-0.539380
27.323693,0.134368,-0.064096,-0.539380
27.333733,0.118342,-0.080078,-0.536295
27.343743,0.101299,-0.074668,-0.539521
27.353783,0.108750,-0.075740,-0.543778
27.363793,0.110825,-0.092803,-0.550263
27.373833,0.087413,-0.083146,-0.543872
27.393883,0.096938,-0.100198,-0.557813
27.403893,0.083102,-0.095907,-0.552490
27.413933,0.115065,-0.093819,-0.564142
27.423943,0.116061,-0.122687,-0.557867
27.433983,0.106549,-0.090593,-0.563083
27.444023,0.115041,-0.102363,-0.564183
27.464074,0.124671,-0.086355,-0.568353
27.474083,0.121395,-0.119490,-0.559974
27.484124,0.132034,-0.119464,-0.572763
27.494133,0.127843,-0.100289,-0.559865
27.504174,0.155525,-0.114292,-0.553445
27.514183,0.147989,-0.137727,-0.561055
27.534233,0.175743,-0.125027,-0.555577
27.544274,0.174607,-0.151732,-0.553570
27.554283,0.151242,-0.118525,-0.558818
27.564324,0.172544,-0.127168,-0.552391
27.574364,0.172599,-0.110106,-0.546969
27.584374,0.152395,-0.088641,-0.555469
27.604424,0.146027,-0.087628,-0.539459
27.604424,0.146027,-0.087628,-0.539459
27.614464,0.150218,-0.100341,-0.564076
27.624474,0.132173,-0.085432,-0.542691
27.634514,0.131106,-0.080039,-0.553351
27.644524,0.127931,-0.068251,-0.559713
27.654564,0.103441,-0.065013,-0.550152
27.674614,0.104528,-0.054312,-0.555439
27.684624,0.099207,-0.048935,-0.559701
27.694664,0.112017,-0.040423,-0.561762
27.704705,0.108810,-0.046845,-0.556460
27.714714,0.094995,-0.031849,-0.556427
27.724755,0.104577,-0.027538,-0.571335
27.734764,0.101395,-0.029729,-0.557468
27.744805,0.096049,-0.032890,-0.562839
27.754814,0.109920,-0.017903,-0.579821
27.764855,0.093992,-0.012653,-0.549930
27.774865,0.114186,-0.016849,-0.579804
27.784905,0.113164,-0.007290,-0.568011
27.794915,0.108873,-0.019038,-0.564874
27.814965,0.103625,0.007652,-0.559421
27.825005,0.122736,-0.011567,-0.573346
27.835045,0.119513,-0.023324,-0.569138
27.845055,0.104656,-0.003011,-0.563742
27.855095,0.121698,0.000198,-0.576498
27.865105,0.116335,-0.017990,-0.565917
27.885155,0.105743,0.013076,-0.578618
27.895195,0.119500,-0.029747,-0.565964
27.905205,0.113106,-0.023263,-0.577701
27.915245,0.092980,0.015187,-0.564756
27.925255,0.149349,-0.018016,-0.582917
27.935295,0.096047,-0.033963,-0.561775
27.955346,0.100358,-0.017968,-0.559551
27.955346,0.100358,-0.017968,-0.559551
27.965386,0.147176,-0.030804,-0.587256
27.975396,0.113133,-0.019042,-0.566999
27.985436,0.121693,-0.005172,-0.570114
27.995446,0.138652,-0.038323,-0.572360
28.005486,0.129143,-0.012702,-0.563720
28.025536,0.141832,-0.040433,-0.579839
28.035546,0.119538,-0.020171,-0.558441
28.045586,0.132279,-0.026524,-0.578732
28.055596,0.125838,-0.048976,-0.569242
28.065636,0.104546,-0.036056,-0.576717
28.075646,0.100272,-0.038163,-0.579943
28.095726,0.077862,-0.046618,-0.583250
28.105736,0.070424,-0.042358,-0.575773
28.115776,0.068225,-0.059372,-0.589746
28.125786,0.064006,-0.049802,-0.577962
28.135826,0.055413,-0.067879,-0.588754
28.145836,0.068228,-0.058304,-0.589741
28.155877,0.049041,-0.062544,-0.583405
28.165886,0.059685,-0.063611,-0.590858
28.175927,0.046851,-0.081739,-0.587775
28.185936,0.046891,-0.063554,-0.594098
28.195977,0.060701,-0.081769,-0.590941
28.205986,0.044755,-0.066766,-0.590914
28.216027,0.060708,-0.077482,-0.594125
28.236114,0.055340,-0.089192,-0.598468
28.236114,0.055340,-0.089192,-0.598468
28.246154,0.055399,-0.072140,-0.590910
28.256164,0.037292,-0.068888,-0.588808
28.266204,0.077763,-0.079699,-0.588748
28.276214,0.051049,-0.096628,-0.603857
28.286254,0.040519,-0.059297,-0.586618
28.306304,0.059661,-0.075383,-0.585573
28.316314,0.075652,-0.072216,-0.588718
28.326354,0.057492,-0.086030,-0.590970
28.336364,0.079959,-0.056211,-0.588631
28.346404,0.076684,-0.083962,-0.589839
28.356445,0.076774,-0.055163,-0.582225
28.376495,0.078847,-0.074373,-0.586583
28.376495,0.078847,-0.074373,-0.586583
28.386504,0.086379,-0.054157,-0.575784
28.396545,0.099069,-0.079737,-0.595098
28.406554,0.084230,-0.055172,-0.585409
28.416595,0.101253,-0.069136,-0.580087
28.426604,0.073490,-0.083961,-0.587711
28.446654,0.095939,-0.060550,-0.585402
28.456695,0.100138,-0.079751,-0.592959
28.466705,0.105528,-0.067034,-0.575792
28.476745,0.091646,-0.070137,-0.587596
28.486785,0.115156,-0.055328,-0.573574
28.496795,0.116153,-0.074504,-0.584344
28.516845,0.109779,-0.067088,-0.565108
28.516845,0.106610,-0.067088,-0.565108
28.526885,0.106529,-0.076528,-0.601472
28.536895,0.110918,-0.043547,-0.577803
28.546935,0.099161,-0.056329,-0.576828
28.556945,0.116132,-0.074438,-0.598231
28.566985,0.093861,-0.049940,-0.569335
28.587035,0.126794,-0.073410,-0.597128
28.597045,0.081112,-0.039254,-0.561842
28.607085,0.131971,-0.077254,-0.691135
28.617126,0.096938,-0.056034,-0.637721
28.627135,0.058716,-0.039136,-0.571517
28.637176,0.090517,-0.059161,-0.649503
28.657226,0.077795,-0.065795,-0.592955
28.667236,0.056496,-0.052855,-0.604703
28.677276,0.054479,-0.024126,-0.581072
28.687286,0.065009,-0.061457,-0.598311
28.697326,0.049157,-0.020899,-0.582139
28.707336,0.056503,-0.059339,-0.588710
28.727386,0.062920,-0.048660,-0.592915
28.737426,0.050224,-0.026293,-0.571480
28.747466,0.061839,-0.057225,-0.587617
28.757476,0.065036,-0.060465,-0.582283
28.767516,0.063046,-0.019973,-0.561800
28.777526,0.088473,-0.069125,-0.573713
28.797576,0.088582,-0.039309,-0.555412
28.807616,0.095887,-0.081929,-0.581231
28.817626,0.075866,-0.022266,-0.537207
28.827666,0.105510,-0.070208,-0.582217
28.837676,0.105534,-0.073518,-0.559800
28.847716,0.079013,-0.041505,-0.536221
28.867767,0.093908,-0.055477,-0.527700
28.867767,0.093908,-0.055477,-0.527700
28.887817,0.113083,-0.056587,-0.531925
28.897857,0.109901,-0.054471,-0.525515
28.907867,0.104538,-0.057576,-0.542636
28.907867,0.104538,-0.057576,-0.542636
28.927917,0.114158,-0.053386,-0.531907
28.947967,0.099291,-0.047047,-0.507349
28.947967,0.099291,-0.047047,-0.507349
28.958007,0.131244,-0.046007,-0.523279
28.978057,0.115272,-0.049234,-0.507316
28.988067,0.133364,-0.058905,-0.507311
28.998107,0.117451,-0.040774,-0.491246
29.018157,0.117423,-0.050380,-0.492360
29.028197,0.129143,-0.053637,-0.489139
29.038207,0.124898,-0.048294,-0.486989
29.048247,0.129159,-0.051532,-0.482719
29.058257,0.125985,-0.049441,-0.470968
29.058257,0.125985,-0.049441,-0.470968
29.068298,0.120661,-0.046210,-0.473104
29.098357,0.135511,-0.079425,-0.460401
29.098357,0.135511,-0.079425,-0.460401
29.108398,0.101525,-0.041992,-0.448568
29.128448,0.123912,-0.044236,-0.441039
29.138488,0.113208,-0.055903,-0.450738
29.158538,0.117516,-0.044210,-0.442125
29.158538,0.117516,-0.044210,-0.442125
29.168548,0.119727,-0.021846,-0.430262
29.178588,0.102568,-0.059158,-0.432623
29.188598,0.099414,-0.045280,-0.429361
29.198638,0.116507,-0.035770,-0.419655
29.208648,0.121766,-0.062495,-0.417631
29.238756,0.116508,-0.046545,-0.399410
29.238756,0.116508,-0.046545,-0.399410
29.248766,0.119746,-0.034834,-0.394005
29.258806,0.137856,-0.041330,-0.387576
29.268847,0.112246,-0.055151,-0.383439
29.278856,0.116592,-0.031731,-0.370498
29.298906,0.111273,-0.030666,-0.366235
29.298906,0.111273,-0.030666,-0.366235
29.308947,0.126210,-0.032921,-0.351249
29.318956,0.111204,-0.062764,-0.353568
29.339006,0.122942,-0.067155,-0.336465
29.339006,0.122942,-0.067155,-0.336465
29.349047,0.107060,-0.035121,-0.324607
29.379107,0.112367,-0.047994,-0.316108
29.379107,0.112367,-0.047994,-0.316108
29.389147,0.106010,-0.039475,-0.306471
29.399187,0.118817,-0.039572,-0.294686
29.409197,0.109206,-0.048100,-0.291548
29.419237,0.090063,-0.038472,-0.281941
29.439287,0.104937,-0.056685,-0.279850
29.439287,0.104937,-0.056685,-0.279850
29.449297,0.107136,-0.037515,-0.270139
29.459337,0.102871,-0.042881,-0.261631
29.469347,0.109296,-0.037613,-0.250906
29.479387,0.108204,-0.047221,-0.250954
29.489397,0.082715,-0.022646,-0.235954
29.519487,0.108282,-0.033464,-0.224184
29.519487,0.108282,-0.033464,-0.224184
29.529528,0.080535,-0.048340,-0.221126
29.539537,0.068856,-0.027976,-0.228540
29.549578,0.083780,-0.042039,-0.200791
29.559588,0.088022,-0.045216,-0.209340
29.589678,0.078479,-0.036723,-0.192235
29.589678,0.078479,-0.036723,-0.192235
29.599688,0.061424,-0.042048,-0.183762
29.609728,0.065716,-0.029226,-0.187962
29.619738,0.062535,-0.031422,-0.173026
29.629778,0.060356,-0.046346,-0.177376
29.649828,0.061465,-0.034638,-0.169840
29.649828,0.061465,-0.034638,-0.169840
29.659868,0.080698,-0.027311,-0.151592
29.669878,0.050811,-0.036769,-0.163470
29.679918,0.052977,-0.032576,-0.148489
29.689928,0.067895,-0.034770,-0.146322
29.699968,0.050867,-0.029405,-0.139934
29.730028,0.057296,-0.024147,-0.127073
29.730028,0.057296,-0.024147,-0.127073
29.740068,0.051916,-0.037972,-0.135699
29.750078,0.058370,-0.020947,-0.127055
29.760119,0.046621,-0.033754,-0.120739
29.770128,0.044496,-0.028382,-0.126060
29.790209,0.028474,-0.043302,-0.121902
29.790209,0.028474,-0.043302,-0.121902
29.800219,0.041354,-0.013467,-0.116385
29.810259,0.030641,-0.035879,-0.112247
29.820269,0.032762,-0.040162,-0.111194
29.830309,0.025317,-0.036955,-0.106926
29.840319,0.038136,-0.026317,-0.106840
29.850359,0.042350,-0.046642,-0.102652
29.860369,0.026390,-0.035905,-0.103714
29.870409,0.032812,-0.028471,-0.099388
29.880419,0.042352,-0.048803,-0.097321
29.890459,0.036023,-0.025293,-0.096159
29.900469,0.048766,-0.039192,-0.101531
29.910509,0.040268,-0.037099,-0.086589
29.930559,0.022165,-0.034935,-0.080220
29.930559,0.022165,-0.034935,-0.080220
29.940599,0.042461,-0.020065,-0.076889
29.950609,0.040225,-0.056352,-0.080271
29.960650,0.046666,-0.040359,-0.079110
29.970659,0.021118,-0.032836,-0.071667
29.980700,0.039201,-0.044632,-0.073810
30.000750,0.041309,-0.052104,-0.075975
30.010759,0.020097,-0.025433,-0.055612
30.020800,0.017900,-0.045686,-0.062123
30.030809,0.026521,-0.020160,-0.045955
30.040850,0.026476,-0.034022,-0.050294
30.050890,0.013679,-0.033956,-0.055670
30.080950,0.019076,-0.019108,-0.037425
30.080950,0.019076,-0.019108,-0.037425
30.090990,0.039256,-0.041575,-0.042817
30.101000,0.035048,-0.025578,-0.035275
30.111040,0.025430,-0.035158,-0.035347
30.121050,0.023344,-0.019137,-0.034209
30.141100,0.001992,-0.037268,-0.024740
30.141100,0.001992,-0.037268,-0.024740
30.151140,0.029751,-0.012735,-0.037365
30.161150,0.026448,-0.050092,-0.039688
30.171190,0.005263,-0.010580,-0.024604
30.181231,0.025453,-0.024458,-0.039569
30.191240,0.010494,-0.046912,-0.023694
30.211290,0.021191,-0.028757,-0.031056
30.221345,0.025494,-0.017048,-0.025647
30.231354,0.008339,-0.048985,-0.035460
30.241395,0.008417,-0.027688,-0.022540
30.251404,0.019086,-0.020216,-0.028885
30.261445,-0.000123,-0.030848,-0.025783
30.291505,-0.016072,-0.017992,-0.023630
30.291505,-0.016072,-0.017992,-0.023630
30.301545,0.015896,-0.013768,-0.035272
30.311585,0.003076,-0.033020,-0.020444
30.321595,-0.006467,-0.015907,-0.019321
30.331635,0.018971,-0.054324,-0.042933
30.351685,-0.022426,-0.003020,-0.023577
30.351685,-0.022426,-0.003020,-0.023577
30.361695,0.035037,-0.036312,-0.023576
30.371735,0.003119,-0.023459,-0.009716
30.381745,0.037155,-0.041664,-0.022527
30.391785,0.024455,-0.023594,0.004229
30.401795,0.019052,-0.033037,-0.027877
30.421845,0.022282,-0.035304,-0.002242
30.421845,0.022282,-0.035304,-0.002242
30.431885,0.033982,-0.042808,-0.004381
30.441926,0.017057,-0.004378,0.010709
30.451935,0.060616,-0.045015,-0.007523
30.461976,0.035103,-0.032213,0.012763
30.471986,0.023382,-0.024644,0.001016
30.492036,0.020164,-0.039650,0.014823
30.502076,0.016982,-0.029993,0.007383
30.512086,0.020261,-0.004408,0.014990
30.522126,0.016968,-0.037489,0.011620
30.532136,0.020222,-0.016135,0.010662
30.542176,-0.010648,-0.006459,0.018100
30.562226,0.007337,-0.050262,0.009396
30.562226,0.007337,-0.050262,0.009396
30.572266,-0.007409,0.010633,0.014985
30.582276,0.034033,-0.031121,0.008493
30.592316,0.002076,-0.028917,0.015892
30.602326,0.003173,-0.012861,0.007425
30.612366,-0.005373,-0.023543,0.013761
30.632416,-0.007485,-0.018211,0.016985
30.642426,0.004228,-0.020370,0.013802
30.652467,0.012707,-0.033173,0.005219
30.662476,-0.015974,-0.007530,0.022353
30.672517,0.018087,-0.013962,0.004257
30.682526,-0.008569,-0.028923,0.024408
30.702607,0.014864,-0.025719,0.008465
30.712617,-0.015953,-0.007596,0.036239
30.722657,0.030855,-0.017167,-0.004269
30.732667,-0.000049,-0.033237,0.027616
30.742707,0.005348,-0.004385,0.020290
30.752717,0.004157,-0.042766,0.007287
30.772767,0.042472,-0.058880,0.000907
30.772767,0.042472,-0.058880,0.000907
30.782807,-0.021278,-0.006515,0.037298
30.792817,0.015924,-0.031093,0.014852
30.802857,0.003155,-0.030039,0.026572
30.812867,-0.003251,-0.029983,0.019077
30.822907,-0.002211,-0.040676,0.021166
30.842957,0.007356,-0.054630,0.029672
30.852998,-0.003239,-0.026789,0.021229
30.863007,0.007391,-0.036430,0.020144
30.873048,-0.002141,-0.018274,0.026613
30.883057,-0.005421,-0.041703,0.014743
30.893098,-0.001112,-0.032166,0.027618
30.913148,0.014824,-0.047138,0.021182
30.913148,0.014824,-0.047138,0.021182
30.923157,0.000034,-0.001184,0.024563
30.933198,0.009523,-0.037515,0.022281
30.943238,0.009615,-0.006565,0.026701
30.953248,0.012742,-0.033284,0.028720
30.963288,0.022378,-0.016218,0.026690
30.983338,0.018087,-0.029045,0.031959
30.993348,0.023428,-0.024790,0.031994
31.003388,0.010646,-0.017233,0.023449
31.013398,0.023400,-0.034397,0.030880
31.023438,0.012807,-0.007638,0.025636
31.033448,0.008519,-0.022626,0.036236
31.053498,0.008506,-0.019352,0.021296
31.063538,0.001084,-0.016220,0.041587
31.073579,0.009526,-0.034291,0.018024
31.083588,-0.008519,-0.017231,0.036214
31.093629,0.008531,-0.012969,0.026668
31.103638,0.003166,-0.027918,0.029787
31.123688,0.006350,-0.025732,0.016987
31.123688,0.006350,-0.025732,0.016987
31.133729,0.000016,-0.019440,0.045841
31.143738,0.014936,-0.008713,0.025637
31.153779,0.009531,-0.038618,0.029754
31.163789,0.009662,0.001902,0.042764
31.173829,0.030837,-0.040808,0.026598
31.193879,0.029861,-0.006621,0.024620
31.203919,0.005284,-0.038655,0.040424
31.213929,0.029859,-0.014152,0.036335
31.223999,0.017016,-0.031177,0.031946
31.234009,0.008514,-0.025840,0.038357
31.244049,0.018111,-0.021579,0.034131
31.264099,0.004237,-0.030093,0.037257
31.274109,0.018075,-0.030082,0.025545
31.284149,0.000981,-0.051441,0.037147
31.294159,-0.001039,-0.013009,0.041596
31.304199,0.027622,-0.049361,0.030821
31.314209,0.009525,-0.045061,0.037201
31.334290,0.003184,-0.023667,0.034080
31.344299,0.004225,-0.032209,0.032974
31.354340,0.011676,-0.037588,0.036174
31.364350,0.020184,-0.035404,0.020184
31.374390,-0.015990,-0.025791,0.044699
31.384400,0.021297,-0.020476,0.024531
31.404450,0.011708,-0.024762,0.034098
31.414490,0.005274,-0.037547,0.031883
31.424500,-0.003196,-0.018306,0.034087
31.434540,0.003190,-0.020453,0.031958
31.444550,0.019145,-0.027945,0.024490
31.454590,-0.002147,-0.026873,0.038323
31.464630,0.006394,-0.015098,0.026652
31.474640,0.009527,-0.039681,0.028680
31.484680,-0.006344,-0.000141,0.034165
31.494690,0.002112,-0.019336,0.022347
31.504730,0.003153,-0.039726,0.042549
31.514740,0.010687,-0.002282,0.023519
31.524780,0.015944,-0.034388,0.034064
31.544830,0.014860,-0.036479,0.025506
31.544830,0.014860,-0.036479,0.025506
31.554840,-0.001019,-0.007685,0.044826
31.564881,0.017052,-0.015133,0.026681
31.574890,0.009618,-0.013039,0.040557
31.584931,0.007421,-0.032214,0.031915
31.594971,-0.004244,-0.007588,0.026658
31.615021,0.024506,-0.016215,0.024560
31.625031,-0.013852,-0.021511,0.041520
31.635071,0.013848,-0.020487,0.031988
31.645081,0.006432,-0.006600,0.036306
31.655121,0.008480,-0.039738,0.041496
31.665131,0.005412,0.008339,0.039578
31.685181,0.007449,-0.030149,0.046879
31.685181,0.007449,-0.030149,0.046879
31.695221,0.008552,-0.013035,0.040554
31.705231,0.026593,-0.036548,0.031947
31.715271,0.002178,-0.012002,0.052292
31.725311,0.037275,-0.023732,0.024560
31.735321,0.018100,-0.035548,0.052224
31.745361,0.013881,-0.006589,0.028849
31.755371,0.004231,-0.032229,0.037247
31.765412,0.004323,-0.004513,0.048060
31.775421,0.025520,-0.037597,0.028734
31.785462,-0.004239,-0.018374,0.049039
31.795471,0.005356,-0.005489,0.027762
31.805512,-0.018096,-0.011860,0.036213
31.815521,-0.015974,-0.012915,0.031941
31.825562,0.003198,-0.017249,0.031974
31.835571,-0.009617,-0.023590,0.026567
31.845612,-0.025585,-0.021442,0.035079
31.855652,-0.007460,-0.010751,0.020225
31.865662,-0.018152,-0.032151,0.036117
31.875702,-0.021275,0.001016,0.025583
31.885712,-0.002164,-0.028974,0.030835
31.895752,0.009565,-0.024720,0.026615
31.905762,-0.013896,-0.036452,0.039313
31.915802,0.005331,-0.012949,0.024522
31.925812,-0.003205,-0.020432,0.031941
31.935852,0.005378,-0.004481,0.040586
31.945862,0.016986,-0.035393,0.020176
31.955902,-0.012815,-0.032194,0.041473
31.965912,0.008549,-0.006562,0.026698
31.975952,0.012773,-0.023688,0.031970
31.985993,-0.025587,-0.019281,0.029748
31.996002,-0.018097,-0.008626,0.029819
32.006043,-0.001113,-0.033239,0.028681
32.016052,-0.026655,-0.023580,0.036134
32.036102,0.010568,-0.048223,0.027575
32.046143,-0.035129,-0.004330,0.036202
32.056153,-0.011764,-0.025688,0.020142
32.066193,-0.024513,-0.020388,0.037223
32.076203,-0.016056,-0.036354,0.020080
32.086243,-0.008556,-0.023578,0.023366
32.106293,0.010560,-0.041734,0.010514
32.116333,-0.021319,-0.024695,0.042553
32.126343,-0.014982,-0.033153,0.020098
32.136383,0.011676,-0.032202,0.026585
32.146393,-0.006368,-0.009758,0.035187
32.156433,0.007358,-0.050328,0.023283
32.166443,-0.010606,-0.004439,0.042678
32.176483,0.008433,-0.042821,0.015844
32.186493,-0.000040,-0.030034,0.027631
32.196533,-0.020237,-0.013979,0.034061
32.206543,0.014876,-0.031145,0.026599
32.216583,-0.011733,-0.015014,0.021261
32.226606,-0.028841,-0.041713,0.032838
32.246687,-0.028780,-0.018208,0.030813
32.256697,-0.016079,-0.047053,0.024302
32.266737,-0.022375,-0.007489,0.018062
32.276747,-0.034141,-0.031016,0.032874
32.286787,-0.019269,-0.033064,0.004063
32.296797,-0.051174,-0.019173,0.024337
32.316847,-0.029891,-0.024526,0.012620
32.326887,-0.044777,-0.022433,0.031817
32.336897,-0.017111,-0.021303,-0.000148
32.346937,-0.039480,-0.035275,0.033907
32.356947,-0.018116,-0.005336,0.011675
32.366987,-0.033097,-0.030949,0.017922
32.387037,-0.006463,-0.026693,0.003061
32.397077,-0.043695,-0.016024,0.030782
32.407087,-0.004283,-0.011774,0.008478
32.417127,-0.017139,-0.039529,0.014721
32.427137,-0.052188,-0.003176,0.029751
32.437177,0.012669,-0.036285,-0.014023
32.457228,-0.036237,0.000118,-0.000100
32.467237,-0.020298,-0.024557,0.012646
32.477278,-0.020316,-0.029887,0.010485
32.487287,-0.035194,-0.009507,0.001994
32.497328,-0.013824,0.001022,0.019194
32.507368,-0.001118,-0.021375,0.004169
32.527418,-0.039437,-0.007403,0.011606
32.537428,-0.019266,-0.025533,-0.007652
32.547468,-0.045811,-0.002063,0.015887
32.557478,-0.016003,-0.006361,0.000994
32.567518,-0.020267,-0.004191,-0.003280
32.577528,-0.035124,0.001040,0.029818
32.587568,0.005283,-0.006334,-0.019243
32.597578,-0.042721,-0.034050,0.002925
32.597578,-0.042721,-0.034050,0.002925
32.617628,0.020152,-0.035302,-0.001180
32.627668,-0.047905,0.011827,0.015947
32.637708,-0.025653,-0.019074,-0.014048
32.647718,-0.016020,-0.021388,0.016946
32.657759,-0.026599,0.015022,0.003202
32.667768,-0.026662,-0.014940,0.015879
32.677809,-0.003184,0.005355,-0.001052
32.687818,-0.016025,-0.021372,0.013741
32.697859,-0.019129,0.009583,0.019220
32.707868,0.005279,-0.017094,-0.002203
32.717909,-0.011716,-0.010758,0.024486
32.737959,-0.030855,0.006397,0.023446
32.747968,-0.030855,-0.009555,-0.005413
32.758009,-0.039486,-0.023407,0.008326
32.768049,-0.023380,0.023560,0.002183
32.778059,-0.005340,-0.008567,0.008490
32.788099,-0.030871,0.006447,0.012764
32.808149,-0.021294,-0.005387,0.024485
32.818159,0.008505,-0.004269,-0.006406
32.828199,-0.005366,-0.025719,0.022296
32.838209,-0.009540,0.013869,0.009653
32.848249,0.004180,-0.024526,-0.010787
32.858259,-0.027656,0.005303,0.026654
32.878309,-0.024487,-0.003235,0.023418
32.888349,-0.000023,-0.005314,-0.005366
32.898390,-0.016087,-0.036258,-0.000216
32.908399,-0.034048,0.013933,0.012790
32.908399,-0.034048,0.013933,0.012790
32.918440,-0.011840,-0.032987,-0.017280
32.928449,-0.040498,-0.009571,0.019071
32.958540,-0.037267,0.009702,0.006352
32.958540,-0.037267,0.009702,0.006352
32.978590,-0.026642,-0.025600,0.003045
32.988600,-0.020263,0.000106,-0.008601
32.988600,-0.020263,0.000106,-0.008601
32.998640,-0.014926,-0.005322,0.006343
33.028730,0.001074,-0.001107,0.007475
