time_tick,gyr_X_value,gyr_Y_value,gyr_Z_value
0.007913,-0.014986,-0.027753,0.007305
0.017953,-0.004312,-0.022453,0.008428
0.027963,-0.011762,-0.019230,0.009490
0.038003,-0.005363,-0.017110,0.008450
0.048013,-0.011764,-0.018147,0.006291
0.058053,-0.007507,-0.020297,0.006293
0.068093,-0.011773,-0.022429,0.008407
0.078103,-0.007495,-0.017103,0.008444
0.088143,-0.005356,-0.013901,0.007397
0.098153,-0.016043,-0.024546,0.007317
0.108193,-0.007513,-0.022433,0.006282
0.118203,-0.008562,-0.017095,0.007373
0.128243,-0.009625,-0.016023,0.007375
0.138284,-0.008563,-0.018168,0.008436
0.148293,-0.012837,-0.021352,0.007341
0.158334,-0.006441,-0.021378,0.008427
0.168343,-0.008568,-0.020308,0.009494
0.178384,-0.002160,-0.013906,0.006338
0.188394,-0.010698,-0.018151,0.006294
0.198434,-0.007517,-0.024574,0.007340
0.208490,-0.008570,-0.019225,0.006295
0.218500,-0.008569,-0.020303,0.008426
0.228540,-0.008558,-0.014954,0.006315
0.238550,-0.010710,-0.023500,0.008405
0.248590,-0.010707,-0.021354,0.006279
0.258630,-0.012835,-0.021357,0.008409
0.268640,-0.011758,-0.017089,0.008432
0.278681,-0.008568,-0.019230,0.007363
0.288690,-0.011777,-0.023492,0.007334
0.298731,-0.010705,-0.021359,0.007347
0.308740,-0.009622,-0.016033,0.009511
0.318781,-0.008553,-0.014969,0.009519
0.328821,-0.010705,-0.021359,0.007347
0.338831,-0.008569,-0.020303,0.008426
0.348871,-0.009632,-0.019232,0.008428
0.358881,-0.006429,-0.018185,0.010578
0.368921,-0.005351,-0.012838,0.008470
0.378931,-0.009639,-0.022441,0.009481
0.388971,-0.010707,-0.022432,0.008410
0.399011,-0.007491,-0.017113,0.010580
0.409021,-0.007489,-0.014967,0.008454
0.419061,-0.009632,-0.019232,0.008428
0.429071,-0.009642,-0.023509,0.009476
0.439111,-0.009631,-0.019237,0.009496
0.449121,-0.008551,-0.014974,0.010588
0.459161,-0.008560,-0.017100,0.008441
0.469202,-0.012846,-0.024556,0.007326
0.479212,-0.006439,-0.021383,0.009495
0.489252,-0.010701,-0.020296,0.008420
0.499262,-0.004290,-0.014983,0.009531
0.509302,-0.007506,-0.021375,0.008424
0.519312,-0.010711,-0.024573,0.009468
0.529352,-0.007499,-0.018166,0.007371
0.539392,-0.006442,-0.021373,0.007359
0.549402,-0.009619,-0.013887,0.007385
0.559442,-0.009634,-0.019227,0.007360
0.569452,-0.011774,-0.022424,0.007339
0.579492,-0.011767,-0.020293,0.008417
0.589502,-0.005359,-0.014969,0.007392
0.599542,-0.011754,-0.014948,0.007374
0.609583,-0.007502,-0.019234,0.007366
0.619592,-0.007507,-0.020297,0.006293
0.629633,-0.010694,-0.017088,0.007367
0.639642,-0.004290,-0.013905,0.007400
0.649683,-0.009622,-0.014955,0.007380
0.659692,-0.005373,-0.020309,0.007367
0.669733,-0.010690,-0.017098,0.009503
0.679773,-0.006417,-0.012835,0.008467
0.689783,-0.005347,-0.010697,0.007412
0.699823,-0.004306,-0.019239,0.006306
0.709833,-0.007491,-0.017113,0.010580
0.719873,-0.007496,-0.018176,0.009507
0.729883,-0.003233,-0.018190,0.009519
0.739923,-0.010679,-0.012826,0.009524
0.749963,-0.005361,-0.017115,0.009518
0.759973,-0.009649,-0.026718,0.010529
0.770014,-0.011784,-0.027779,0.010518
0.780023,-0.000005,-0.007526,0.010647
0.790064,-0.009631,-0.018159,0.007365
0.800104,-0.013909,-0.023485,0.007328
0.810114,-0.009651,-0.026713,0.009461
0.820154,-0.009651,-0.009622,0.009539
0.830164,-0.011753,-0.016026,0.009506
0.840204,-0.012848,-0.026702,0.009452
0.850214,-0.006409,-0.011782,0.011677
0.850214,-0.006409,-0.011782,0.011677
0.870294,-0.010681,-0.016050,0.013781
0.880304,-0.006414,-0.010689,0.006341
0.890344,-0.011775,-0.024575,0.010533
0.900354,-0.008562,-0.019251,0.011636
0.910394,-0.010696,-0.019234,0.009493
0.920404,-0.005351,-0.014994,0.012733
0.920404,-0.005351,-0.014994,0.012733
0.940485,-0.004312,-0.023531,0.010559
0.950494,-0.018155,-0.019214,0.010541
0.960535,-0.002164,-0.018204,0.011658
0.970545,-0.012812,-0.013892,0.010581
0.980585,-0.005379,-0.022445,0.007356
0.990595,-0.005363,-0.018188,0.010581
0.990595,-0.005363,-0.018188,0.010581
1.010675,-0.005346,-0.013932,0.013806
1.020685,-0.009625,-0.016023,0.007375
1.030725,-0.007515,-0.025657,0.010540
1.040735,-0.011771,-0.022434,0.009475
1.040735,-0.011771,-0.022434,0.009475
1.060785,-0.003215,-0.011782,0.009549
1.060785,-0.003215,-0.011782,0.009549
1.070825,-0.014963,-0.019210,0.007345
1.080866,-0.007519,-0.026719,0.009467
1.090875,-0.008575,-0.023517,0.010547
1.110925,-0.012819,-0.016023,0.009503
1.110925,-0.012819,-0.016023,0.009503
1.120966,-0.006436,-0.019237,0.007369
1.130975,-0.012844,-0.025639,0.010525
1.141016,-0.007499,-0.020322,0.011633
1.151056,-0.006426,-0.017117,0.010583
1.161066,-0.007487,-0.016050,0.011654
1.171106,-0.011768,-0.022444,0.011612
1.181116,-0.012845,-0.026712,0.011588
1.191156,-0.008548,-0.013906,0.010593
1.211246,-0.011774,-0.023502,0.009470
1.211246,-0.011774,-0.023502,0.009470
1.221286,-0.010689,-0.017103,0.010572
1.231296,-0.011768,-0.022444,0.011612
1.241336,-0.011749,-0.014964,0.010579
1.251346,-0.012801,-0.010693,0.011664
1.261387,-0.009648,-0.025645,0.009466
1.271396,-0.013899,-0.022437,0.011606
1.281437,-0.010695,-0.018161,0.008430
1.291477,-0.001091,-0.014998,0.010608
1.301487,-0.009623,-0.016028,0.008443
1.311527,-0.011771,-0.021356,0.007344
1.321537,-0.012835,-0.022436,0.010541
1.331577,-0.008571,-0.019220,0.005226
1.341617,-0.007495,-0.017103,0.008444
1.351627,-0.008572,-0.020293,0.006290
1.361667,-0.004319,-0.024584,0.007349
1.371677,-0.012843,-0.023488,0.007331
1.381717,0.002112,-0.009639,0.004233
1.391727,-0.013901,-0.020276,0.006275
1.401767,-0.006468,-0.026677,-0.000144
1.411808,-0.007483,-0.012831,0.008464
1.421817,-0.008570,-0.018147,0.004163
1.441867,-0.011773,-0.019195,0.002013
1.441867,-0.011773,-0.019195,0.002013
1.451908,-0.005374,-0.018153,0.003104
1.461918,-0.009637,-0.020295,0.007355
1.471958,-0.006449,-0.020275,0.000954
1.481998,-0.006422,-0.011742,0.003131
1.492008,-0.011780,-0.022404,0.003066
1.502048,-0.004306,-0.016010,0.000981
1.512058,-0.010703,-0.019213,0.005221
1.522098,-0.005377,-0.019221,0.003099
1.532108,-0.005351,-0.009609,0.003144
1.542148,-0.011785,-0.023466,0.001993
1.552189,-0.006458,-0.023479,0.000939
1.562198,-0.012824,-0.013852,0.002035
1.582248,-0.012844,-0.020254,0.000937
1.582248,-0.012844,-0.020254,0.000937
1.592289,-0.009651,-0.020249,-0.002259
1.602298,-0.008569,-0.015996,0.000969
1.612339,-0.008580,-0.020268,0.000949
1.622379,-0.007505,-0.015995,-0.000096
1.632389,-0.008584,-0.020258,-0.001188
1.642429,-0.004320,-0.020272,-0.001176
1.652439,-0.010717,-0.021324,-0.000130
1.662479,-0.009658,-0.023458,-0.001206
1.672489,-0.001093,-0.010681,0.001015
1.682529,-0.010736,-0.027726,-0.001229
1.692569,-0.006457,-0.021328,-0.002255
1.702579,-0.009647,-0.019186,-0.001186
1.712619,-0.007521,-0.020251,-0.003321
1.722629,-0.009636,-0.014910,-0.002234
1.732669,-0.006466,-0.023453,-0.004402
1.742679,-0.009654,-0.021317,-0.002264
1.752720,-0.007515,-0.018115,-0.003311
1.762760,-0.002164,-0.009584,-0.004324
1.772770,-0.011786,-0.020232,-0.004401
1.782810,-0.006478,-0.026647,-0.006553
1.792820,-0.008568,-0.012767,-0.004357
1.802860,-0.005393,-0.020248,-0.005452
1.812870,-0.002166,-0.009579,-0.005392
1.822910,-0.006450,-0.017041,-0.005440
1.832950,-0.003267,-0.022391,-0.005456
1.842960,-0.008593,-0.021306,-0.005466
1.853000,0.003149,-0.016014,-0.003272
1.863010,0.001036,-0.007449,-0.006442
1.873050,-0.007551,-0.029852,-0.005503
1.883060,0.001003,-0.019196,-0.006497
1.893100,0.003153,-0.013873,-0.004330
1.903141,-0.000074,-0.024542,-0.004389
1.913150,-0.005372,-0.012773,-0.005416
1.923191,0.003124,-0.021323,-0.009706
1.933201,-0.004340,-0.025596,-0.004406
1.943241,-0.009669,-0.023423,-0.008683
1.953281,-0.004321,-0.017038,-0.007570
1.963291,-0.005371,-0.010621,-0.008611
1.973331,0.000997,-0.020254,-0.008639
1.983341,-0.008621,-0.031990,-0.004448
1.993381,-0.010741,-0.025555,-0.008696
2.003391,0.003161,-0.007435,-0.010709
2.013431,0.006375,-0.003189,-0.007475
2.023471,-0.011845,-0.040513,-0.006634
2.033481,-0.009693,-0.031966,-0.008724
2.043522,-0.004259,0.004311,-0.005332
2.053531,0.021343,0.013849,-0.007353
2.063572,-0.008644,-0.040533,-0.004488
2.073581,-0.018261,-0.049041,-0.005624
2.083622,-0.006368,0.015017,-0.009560
2.093662,0.029892,0.024521,-0.011552
2.103672,-0.023589,-0.049028,-0.004570
2.113712,-0.026697,-0.013751,-0.009753
2.123722,0.022441,0.026671,-0.009426
2.133762,0.008502,-0.003181,-0.010674
2.143772,-0.025627,-0.013770,-0.006545
2.153812,0.005344,0.010708,-0.009548
2.163852,-0.006489,-0.026612,-0.014031
2.173862,-0.010598,0.028929,-0.012711
2.183902,-0.003211,-0.003178,-0.003229
2.193912,-0.016042,-0.010546,-0.017186
2.213978,-0.005360,-0.003116,-0.014985
2.213978,-0.005360,-0.003116,-0.014985
2.224019,-0.009570,0.008580,-0.001054
2.234059,-0.001029,0.026818,-0.024445
2.244069,-0.014916,0.006497,-0.008556
2.254109,-0.015994,0.007613,-0.018168
2.264119,0.015051,0.051247,-0.007193
2.284169,0.007550,0.037394,-0.008348
2.284169,0.007550,0.037394,-0.008348
2.294209,-0.029812,0.024776,-0.024534
2.304249,0.005373,0.023543,-0.013761
2.314259,-0.025526,0.031154,-0.021287
2.324299,0.007493,0.018186,-0.011644
2.334309,-0.032993,0.030121,-0.023449
2.344349,0.010705,0.022437,-0.009478
2.354359,-0.024452,0.036511,-0.025532
2.364399,-0.006357,0.020367,-0.011672
2.374440,-0.005260,0.037501,-0.022270
2.384449,-0.012708,0.039641,-0.018007
2.394490,-0.007446,0.011827,-0.011715
2.404499,-0.003137,0.033212,-0.020148
2.414540,-0.011692,0.020405,-0.015959
2.424550,0.004292,0.020363,-0.018051
2.434590,-0.009534,0.030009,-0.015908
2.444630,-0.002060,0.035329,-0.016930
2.454640,-0.003242,-0.006311,-0.018198
2.464680,-0.006359,0.024684,-0.021265
2.474690,0.011800,0.034191,-0.011556
2.494740,-0.024473,0.023650,-0.015979
2.494740,-0.024473,0.023650,-0.015979
2.504780,0.046929,0.024516,-0.022187
2.514821,-0.034189,-0.015782,-0.026874
2.524830,0.001023,-0.006330,-0.017119
2.534871,0.024613,0.043771,-0.013612
2.544880,-0.026775,-0.028586,-0.034392
2.564930,-0.021271,0.033322,-0.030879
2.564930,-0.021271,0.033322,-0.030879
2.574971,0.036086,-0.047036,-0.015078
2.585011,-0.034208,-0.024340,-0.023710
2.595021,0.029837,0.008538,-0.019105
2.605061,-0.007604,-0.041534,-0.019445
2.615071,0.004165,-0.024480,-0.020400
2.625111,0.004177,-0.021286,-0.018249
2.635151,0.008431,-0.021270,-0.024646
2.645161,-0.001177,-0.034115,-0.011915
2.655201,0.010531,-0.037336,-0.016171
2.665211,0.006313,-0.019152,-0.019301
2.675251,0.010536,-0.037351,-0.012966
2.685261,0.005240,-0.021280,-0.020382
2.695301,0.009470,-0.036270,-0.015100
2.705342,-0.002230,-0.026610,-0.017223
2.715352,0.021239,-0.019216,-0.016055
2.725392,0.002049,-0.025597,-0.008661
2.735402,0.012649,-0.038376,-0.023647
2.745442,-0.000040,-0.006337,-0.014985
2.755452,0.019098,-0.020257,-0.020339
2.775532,-0.003272,-0.013756,-0.024643
2.775532,-0.003272,-0.013756,-0.024643
2.785542,0.011688,-0.004234,-0.016011
2.795582,-0.004378,-0.027631,-0.025780
2.805592,-0.011801,-0.015875,-0.022540
2.815632,-0.003270,-0.011610,-0.026769
2.825642,0.010643,0.004323,-0.018110
2.845723,-0.015031,-0.026533,-0.024736
2.845723,-0.015031,-0.026533,-0.024736
2.855732,0.016996,-0.003107,-0.032014
2.865773,-0.014945,0.001202,-0.018195
2.875782,-0.009667,-0.008350,-0.034249
2.885823,0.020215,-0.001033,-0.021313
2.895832,-0.017148,-0.020109,-0.026848
2.915913,0.022307,-0.013839,-0.024573
2.915913,0.022307,-0.013839,-0.024573
2.925923,-0.027767,-0.005118,-0.027875
2.935963,0.021308,0.012883,-0.028722
2.945973,-0.008631,-0.023340,-0.026840
2.956013,0.014810,-0.023396,-0.031048
2.966023,-0.022392,0.009800,-0.024584
2.986103,-0.017124,-0.009414,-0.030002
2.986103,-0.017124,-0.009414,-0.030002
2.996113,0.007379,-0.018078,-0.021429
3.006154,-0.016061,-0.009408,-0.032135
3.016163,0.021249,-0.007398,-0.030954
3.026204,-0.002212,-0.018052,-0.020388
3.036213,-0.011790,-0.010525,-0.024651
3.056294,-0.006514,-0.028687,-0.026859
3.056294,-0.006514,-0.028687,-0.026859
3.066304,-0.000104,-0.019061,-0.034273
3.076344,0.009570,0.007581,-0.028779
3.086354,-0.002240,-0.027658,-0.021501
3.096394,-0.008668,-0.032916,-0.034363
3.106404,0.020222,0.005410,-0.028760
3.126484,0.015838,-0.038361,-0.028979
3.126484,0.015838,-0.038361,-0.028979
3.136494,-0.003284,-0.011565,-0.036383
3.146534,0.027670,0.004349,-0.035154
3.156544,0.003075,-0.029786,-0.026838
3.166584,0.012670,-0.025515,-0.033200
3.176594,0.024441,-0.006315,-0.036282
3.196675,0.017961,-0.029723,-0.050297
3.196675,0.017961,-0.029723,-0.050297
3.206685,0.024477,-0.001041,-0.022370
3.216750,-0.005467,-0.028630,-0.039674
3.226760,0.010528,-0.024400,-0.041747
3.236800,0.006291,-0.011540,-0.048107
3.246810,0.013671,-0.047935,-0.035440
3.266890,0.016972,-0.010573,-0.034186
3.266890,0.016972,-0.010573,-0.034186
3.276900,0.001980,-0.027535,-0.050331
3.286940,0.030722,-0.047985,-0.036461
3.296950,-0.011829,-0.011476,-0.049225
3.306990,0.037279,0.007496,-0.029771
3.317000,-0.015116,-0.051040,-0.036602
3.337081,-0.000020,0.017299,-0.044783
3.347090,0.029723,-0.021263,-0.040611
3.357131,-0.043937,-0.065887,-0.038889
3.367140,0.019142,0.010845,-0.047965
3.377181,0.012711,-0.006257,-0.040587
3.387221,-0.017262,-0.045602,-0.055811
3.407271,-0.006576,-0.037109,-0.052536
3.417281,0.011609,-0.014756,-0.049176
3.427321,0.005241,-0.010509,-0.039559
3.437331,0.007306,-0.027542,-0.052453
3.447371,0.012660,-0.030870,-0.030021
3.457411,0.016949,-0.011575,-0.048078
3.467421,0.022244,-0.025490,-0.044924
3.477461,-0.005449,-0.016837,-0.049233
3.487471,0.029732,-0.018059,-0.040595
3.497512,0.007392,-0.008426,-0.029929
3.507521,0.019061,-0.022291,-0.041713
3.517562,0.012643,-0.025429,-0.051360
3.527602,0.014856,0.000159,-0.043755
3.547652,0.008420,-0.020156,-0.034255
3.557662,0.009458,-0.018996,-0.054543
3.567702,-0.000106,-0.016900,-0.039604
3.577712,0.019057,-0.020125,-0.048112
3.587752,0.008504,0.014048,-0.040502
3.597792,0.010533,-0.016874,-0.052393
3.607802,0.004116,-0.030786,-0.041795
3.617842,-0.013904,0.002353,-0.036347
3.627852,0.054251,-0.017081,-0.038387
3.637892,-0.009723,-0.024329,-0.042871
3.647902,0.021241,0.000169,-0.050147
3.657942,0.022230,-0.031908,-0.042818
3.667983,0.004195,-0.003030,-0.039527
3.688033,-0.000203,-0.055370,-0.034445
3.698043,-0.001153,-0.007260,-0.044902
3.708083,0.043630,-0.002080,-0.041550
3.718093,-0.006530,-0.034021,-0.027953
3.728133,0.019139,0.003314,-0.036251
3.738173,0.015957,0.006507,-0.031972
3.748183,0.005181,-0.034019,-0.036466
3.758223,-0.016081,-0.011498,-0.041759
3.768233,0.019141,0.002230,-0.033051
3.778273,0.000952,-0.017956,-0.042811
3.788283,-0.003257,-0.005188,-0.029944
3.798323,0.004195,-0.003030,-0.039527
3.808364,0.019079,-0.020196,-0.033157
3.828414,0.047925,0.017194,-0.055333
3.838423,-0.024651,-0.044728,-0.009894
3.848464,-0.072607,-0.019812,-0.051569
3.858473,0.087383,0.011605,-0.029614
3.868514,-0.066122,-0.001805,-0.024760
3.878554,0.013604,-0.063883,-0.050471
3.898604,0.014845,-0.000884,-0.049101
3.898604,0.014845,-0.000884,-0.049101
3.908614,-0.026849,-0.060669,-0.024930
3.918654,-0.043710,0.017416,-0.039562
3.928664,0.069219,0.001035,-0.040396
3.938704,-0.066271,-0.050884,-0.034607
3.948744,0.014863,-0.005251,-0.028826
3.968794,-0.014069,-0.063909,-0.025978
3.978804,0.011688,0.007615,-0.037319
3.988845,0.028672,-0.024539,-0.024606
3.998854,-0.009767,-0.053274,-0.019507
4.008895,0.032999,0.002175,-0.030877
4.018935,0.012713,-0.014881,-0.023536
4.038985,-0.013922,-0.013747,-0.019331
4.048995,0.011746,0.019281,-0.020172
4.059035,0.014703,-0.065066,-0.026972
4.069045,-0.059821,-0.041384,-0.015316
4.079085,0.056498,0.027790,-0.043509
4.089125,-0.010754,-0.039519,0.008329
4.109175,0.030927,0.019229,-0.022256
4.119185,-0.012881,-0.025523,-0.014043
4.129225,0.007357,-0.025548,-0.022533
4.139235,0.000039,0.017112,-0.005260
4.149275,-0.002251,-0.028701,-0.026847
4.159316,-0.002196,-0.012717,-0.019294
4.179366,0.041508,-0.004260,-0.030884
4.189376,-0.060899,-0.049960,-0.007882
4.199416,0.071480,0.045861,-0.035905
4.209478,-0.010611,0.009580,0.013903
4.219488,-0.005563,-0.055257,-0.054756
4.229528,0.087514,0.049969,-0.012340
4.249578,0.112873,-0.023745,-0.024369
4.259588,-0.059619,0.031224,-0.012836
4.269628,0.022171,-0.051111,-0.047182
4.279669,0.008491,-0.006380,-0.011757
4.289678,-0.011646,0.034262,-0.010552
4.299719,0.026456,-0.054424,-0.026890
4.309728,-0.048077,-0.032869,-0.017380
4.319769,0.008565,0.023548,-0.016956
4.329778,0.007408,-0.007399,-0.021379
4.339819,-0.013986,-0.052324,0.008260
4.349859,-0.022488,-0.015749,-0.041797
4.359869,0.030972,0.024472,-0.001935
4.369909,-0.006439,0.003392,-0.035253
4.379919,0.020099,-0.048062,-0.012990
4.389959,-0.102304,0.002448,0.004002
4.399969,0.074578,0.010619,-0.038199
4.410009,-0.062935,-0.029789,0.018913
4.420049,-0.070414,-0.008163,-0.032280
4.430059,0.070335,-0.003437,0.001246
4.440099,-0.089609,-0.023148,-0.012108
4.450109,0.013716,-0.048076,-0.005531
4.460149,-0.025635,-0.018051,-0.004429
4.470159,0.006301,-0.033116,-0.002276
4.480200,-0.024629,-0.035101,-0.013053
4.490240,0.022220,-0.070657,0.021091
4.500250,-0.066161,-0.032921,0.006071
4.510290,0.063843,-0.036502,-0.003201
4.530340,0.027554,-0.057763,0.000871
4.530340,0.027554,-0.057763,0.000871
4.550390,0.011556,-0.063061,0.002938
4.560430,0.013681,-0.078130,0.026374
4.570440,0.006159,-0.090835,0.008133
4.580480,-0.016220,-0.091851,0.012339
4.600530,0.015656,-0.132576,0.020780
4.610540,-0.073819,-0.103365,0.002512
4.620580,0.018957,-0.089829,0.012446
4.620580,0.018957,-0.089829,0.012446
4.640630,-0.018380,-0.100372,0.009088
4.650671,-0.034373,-0.098144,0.000509
4.670721,-0.034376,-0.094904,-0.006953
4.670721,-0.034376,-0.094904,-0.006953
4.690771,-0.034361,-0.094950,0.002660
4.700811,0.001833,-0.108936,-0.000510
4.710821,-0.020423,-0.064020,0.001777
4.720861,-0.001378,-0.113192,-0.001607
4.740911,-0.005517,-0.071559,0.004987
4.750921,-0.011961,-0.087542,0.001689
4.760961,0.002962,-0.082210,-0.006790
4.760961,0.002962,-0.082210,-0.006790
4.781011,0.006102,-0.096043,-0.019665
4.781011,0.006102,-0.096043,-0.019665
4.801061,-0.039619,-0.066073,-0.002558
4.821111,-0.043786,-0.043744,0.021036
4.821111,-0.043786,-0.043744,0.021036
4.831152,0.034967,-0.066255,-0.015172
4.841192,-0.008620,-0.047072,0.023254
4.851202,-0.007549,-0.030936,-0.002304
4.861242,0.018011,-0.044962,0.010519
4.871252,-0.028759,0.005423,0.002083
4.891302,-0.091722,-0.033972,0.019882
4.891302,-0.091722,-0.033972,0.019882
4.901342,0.039426,0.000975,-0.007364
4.911382,-0.006307,0.024517,0.013985
4.921392,-0.021388,-0.025556,-0.001248
4.931432,-0.011691,0.002088,0.018137
4.941442,-0.031901,0.027880,-0.002093
4.971533,0.004357,0.034160,0.000174
4.971533,0.004357,0.034160,0.000174
4.981573,-0.025575,-0.005317,0.012723
4.991583,-0.033038,0.001180,-0.001154
5.001623,-0.007401,0.018149,0.006475
5.011633,-0.026614,0.003219,0.014897
5.041723,-0.044747,-0.009603,0.028673
5.041723,-0.044747,-0.009603,0.028673
5.051763,-0.025594,0.001207,-0.011815
5.061773,0.056556,0.007140,0.032236
5.071813,-0.121515,-0.000638,-0.007816
5.081823,0.125685,-0.022779,-0.011511
5.101873,-0.005497,-0.036075,-0.046119
5.101873,-0.005497,-0.036075,-0.046119
5.111913,0.090655,-0.004799,0.049366
5.121954,-0.183384,-0.020738,-0.005946
5.131963,0.174703,-0.033684,0.002460
5.142004,-0.147166,-0.045570,0.026083
5.152014,0.042566,-0.016087,-0.014913
5.182104,0.087313,-0.023723,-0.011621
5.182104,0.087313,-0.023723,-0.011621
5.192144,-0.051203,-0.026623,0.018960
5.202154,-0.007597,-0.055559,0.010398
5.212216,0.007398,-0.023524,0.000977
5.222226,-0.007564,-0.044889,0.012585
5.252316,-0.036334,-0.040509,0.009322
5.252316,-0.036334,-0.040509,0.009322
5.262357,0.027685,-0.000009,-0.017015
5.272366,0.005258,-0.037496,0.021201
5.282407,-0.085271,-0.014780,0.022127
5.292416,0.092688,-0.001263,-0.022182
5.312497,-0.049249,-0.070233,-0.019696
5.312497,-0.049249,-0.070233,-0.019696
5.322507,0.053328,0.000784,0.023652
5.332547,-0.060611,0.055770,-0.008449
5.342557,0.083069,-0.029155,0.010774
5.352597,-0.134448,-0.064773,0.013209
5.362607,0.028801,0.010601,-0.003075
5.392697,-0.001030,0.014970,-0.003137
5.392697,-0.001030,0.014970,-0.003137
5.402737,-0.009637,-0.017061,0.000961
5.412747,-0.030977,-0.026613,0.002993
5.422787,-0.036217,0.007593,-0.000064
5.432797,0.009602,-0.001140,0.008567
5.462888,-0.031960,0.002214,0.005263
5.462888,-0.031960,0.002214,0.005263
5.472928,-0.008555,-0.007422,-0.005400
5.482938,-0.002188,-0.022435,0.003092
5.492978,-0.047978,0.000211,-0.011882
5.502988,-0.011820,-0.037360,0.004063
5.533078,-0.012879,-0.034147,0.003008
5.533078,-0.012879,-0.034147,0.003008
5.543118,-0.034207,-0.036194,-0.001334
5.553128,0.004281,0.005316,0.002173
5.563168,-0.011803,-0.029874,0.001962
5.573178,-0.020342,-0.034113,0.000851
5.593259,-0.023551,-0.041608,0.007216
5.603268,-0.029872,-0.001963,-0.016115
5.613309,-0.002189,-0.026742,0.010550
5.623318,-0.093864,-0.025315,-0.002516
5.633359,0.060669,-0.021485,-0.014889
5.643369,-0.074662,-0.029741,0.016744
5.673459,-0.074680,-0.024300,-0.004594
5.673459,-0.074680,-0.024300,-0.004594
5.683499,0.075606,-0.018350,-0.010560
5.693509,-0.050072,-0.005288,0.023337
5.703549,0.013818,-0.009621,-0.007485
5.713559,0.014918,-0.000038,-0.002095
5.733640,-0.014992,-0.024504,-0.002294
5.743649,-0.000042,-0.016024,0.000992
5.753690,-0.004302,-0.016020,0.003117
5.763699,-0.046922,-0.006225,-0.006568
5.773740,0.048938,-0.034348,0.003177
5.783749,-0.082092,-0.005038,-0.007728
5.813840,-0.010717,-0.012705,-0.016113
5.813840,-0.010717,-0.012705,-0.016113
5.823880,-0.027738,-0.011672,0.003073
5.833890,-0.004368,-0.028739,-0.017239
5.843930,-0.017147,-0.038425,0.007248
5.853940,-0.068271,-0.010362,-0.020534
5.874020,-0.100244,-0.017799,-0.006771
5.884030,0.042538,-0.025693,-0.016027
5.894070,-0.049129,-0.030755,-0.012032
5.904080,-0.023570,-0.034006,-0.019454
5.914120,0.016966,-0.024557,-0.012888
5.924130,-0.037439,-0.037150,-0.022712
5.944211,-0.016141,-0.043627,-0.022683
5.954221,-0.028891,-0.028629,-0.023716
5.964261,-0.007663,-0.059658,-0.025941
5.974271,-0.027906,-0.060691,-0.019592
5.984311,-0.019256,-0.014793,-0.020419
5.994321,0.015810,-0.045811,-0.034356
6.014401,-0.000142,-0.032944,-0.034339
6.024411,-0.008673,-0.041520,-0.021585
6.034451,-0.011942,-0.058516,-0.038766
6.044461,-0.017199,-0.036107,-0.031197
6.054501,-0.021533,-0.059568,-0.035592
6.064511,-0.018264,-0.030719,-0.040788
6.094601,-0.027877,-0.037085,-0.042981
6.094601,-0.027877,-0.037085,-0.042981
6.104642,-0.006506,-0.014708,-0.047089
6.114651,-0.000175,-0.040379,-0.042920
6.124692,-0.022580,-0.044542,-0.050479
6.134702,-0.010796,-0.023227,-0.049278
6.154782,0.008366,-0.028604,-0.054591
6.154782,0.008366,-0.028604,-0.054591
6.164792,-0.002303,-0.038231,-0.043984
6.174832,0.015815,-0.033978,-0.052459
6.184842,0.011566,-0.031853,-0.047120
6.194882,-0.005449,-0.013608,-0.054558
6.204892,0.011558,-0.027521,-0.059918
6.224988,0.013693,-0.027538,-0.057776
6.234997,0.015866,-0.019057,-0.045979
6.245038,0.023283,-0.024330,-0.065212
6.255047,0.008356,-0.029651,-0.058869
6.265088,0.015835,-0.018961,-0.066275
6.275097,0.020136,-0.008321,-0.060872
6.295178,0.025415,-0.026493,-0.060943
6.305188,0.016992,0.013063,-0.063984
6.315228,0.015813,-0.027509,-0.065247
6.325238,0.011602,-0.023350,-0.038534
6.335278,0.008468,0.113263,-0.244062
6.345288,0.100622,-0.168535,-0.111613
6.365368,0.121460,0.054672,-0.126523
6.375378,-0.001282,-0.047785,-0.056845
6.385418,0.009452,-0.007127,-0.080124
6.395428,0.185679,0.023444,0.109582
6.405468,-0.378243,0.061190,-0.033871
6.415478,0.096846,0.009828,-0.111848
6.435559,-0.058732,0.025325,-0.120751
6.445569,0.000909,-0.004893,-0.095092
6.455609,0.008348,-0.016700,-0.087649
6.465619,0.033904,-0.024248,-0.089751
6.475659,0.006197,-0.020939,-0.093016
6.485669,0.012594,-0.020965,-0.091931
6.505749,0.004090,-0.015623,-0.086588
6.515759,0.014631,-0.054067,-0.094218
6.525799,0.032834,-0.021000,-0.098284
6.535809,0.008353,-0.016715,-0.084445
6.545849,0.007193,-0.042266,-0.100592
6.555859,0.029641,-0.019927,-0.097220
6.575940,0.026403,-0.033790,-0.099431
6.575940,0.026403,-0.033790,-0.099431
6.585949,0.006183,-0.028435,-0.088779
6.595990,0.033843,-0.038060,-0.104771
6.605999,0.038266,0.008819,-0.084241
6.616040,0.033847,-0.038070,-0.102635
6.626080,-0.000276,-0.047601,-0.096365
6.646130,0.038238,0.009983,-0.104532
6.656140,0.018925,-0.042329,-0.095219
6.666180,0.029544,-0.050857,-0.105912
6.676190,0.029722,0.016443,-0.109866
6.686230,0.041327,-0.034926,-0.095122
6.696270,0.027372,-0.057186,-0.120903
6.716321,0.036006,-0.023086,-0.111104
6.726330,0.039102,-0.055089,-0.120861
6.736371,0.012644,0.007960,-0.111022
6.746380,0.034926,-0.023037,-0.120721
6.756421,0.024228,-0.040109,-0.116558
6.766461,0.028619,0.010100,-0.122718
6.786511,0.018857,-0.045346,-0.134757
6.796521,0.025433,0.017616,-0.129100
6.806561,0.039151,-0.027236,-0.138888
6.816571,-0.004545,-0.029256,-0.133678
6.826611,0.008281,-0.010024,-0.144233
6.836651,0.027408,-0.029294,-0.147476
6.856701,0.019999,-0.003578,-0.160194
6.866711,0.023149,-0.026061,-0.150677
6.876751,-0.004572,-0.022706,-0.163557
6.886761,0.013573,-0.012076,-0.165593
6.896801,0.016773,-0.025023,-0.140008
6.906842,0.008144,-0.036520,-0.187088
6.926892,-0.018489,-0.033239,-0.185009
6.936902,0.019903,-0.017279,-0.198714
6.946942,0.015676,-0.006607,-0.194403
6.956952,-0.033451,-0.035216,-0.208561
6.966992,-0.016388,-0.029916,-0.211693
6.977032,0.014623,0.005205,-0.207168
6.997082,-0.031371,-0.032904,-0.247000
7.007092,-0.004737,-0.027570,-0.263992
7.017132,0.014463,-0.001830,-0.300137
7.027142,-0.001637,-0.047740,-0.291853
7.037182,-0.012285,-0.029424,-0.318501
7.047223,-0.017740,-0.036548,-0.389052
7.067273,0.015312,-0.045310,-0.365501
7.077282,-0.010475,-0.058574,-0.478866
7.087323,-0.020167,-0.040990,-0.577085
7.097332,0.023373,-0.020169,-0.718938
7.107373,0.029432,-0.048209,-0.891037
7.117413,0.004795,-0.013267,-1.036217
7.147473,-0.042776,-0.005589,-1.497780
7.147473,-0.042776,-0.005589,-1.497780
7.157513,-0.047283,-0.024191,-1.626066
7.167523,0.006733,-0.045914,-1.811889
7.177563,-0.183498,0.047768,-1.618625
7.187603,0.035397,-0.119042,-1.047314
7.207654,0.027646,-0.044988,-0.667770
7.217704,-0.098928,-0.070160,-0.452460
7.227745,0.163351,-0.056228,-0.416418
7.237754,0.151771,-0.010325,-0.404482
7.247795,-0.024288,-0.067280,-0.435148
7.257835,0.101562,-0.048572,-0.412279
7.267845,0.070654,-0.040930,-0.426215
7.277885,0.102565,-0.060226,-0.432628
7.287895,0.082406,-0.029211,-0.428264
7.297935,0.086628,-0.047405,-0.422997
7.307945,0.099365,-0.062362,-0.430510
7.317985,0.119666,-0.041044,-0.435694
7.328025,0.112227,-0.032471,-0.436743
7.348075,0.115344,-0.057003,-0.445396
7.358085,0.091972,-0.030234,-0.444266
7.368125,0.079100,-0.052553,-0.458294
7.378135,0.176142,-0.034729,-0.454736
7.388175,0.047215,-0.025802,-0.447573
7.398216,0.071605,-0.064271,-0.459438
7.418266,0.098372,-0.018422,-0.462352
7.428276,0.086464,-0.086741,-0.460571
7.438316,0.149578,-0.000428,-0.463193
7.448326,0.157995,-0.037813,-0.467620
7.458366,0.058779,-0.077040,-0.460602
7.468406,0.127155,-0.013150,-0.467588
7.488456,0.064154,-0.061043,-0.459443
7.498466,0.098307,-0.035453,-0.474183
7.508506,0.185745,-0.028332,-0.458952
7.518516,0.090872,-0.030124,-0.466701
7.528556,0.116397,-0.054810,-0.458201
7.538597,0.132412,-0.039871,-0.466632
7.558647,0.083306,-0.071775,-0.461577
7.568656,0.143052,-0.049542,-0.461307
7.578697,0.131386,-0.025989,-0.465501
7.588706,0.118467,-0.078322,-0.456170
7.598747,0.101519,-0.037665,-0.460298
7.608787,0.152623,-0.061356,-0.453859
7.628837,0.133460,-0.052745,-0.454940
7.628837,0.133460,-0.052745,-0.454940
7.638847,0.114254,-0.061231,-0.453965
7.648887,0.104684,-0.047266,-0.464607
7.658897,0.165450,-0.045358,-0.458021
7.668937,0.051333,-0.070598,-0.462729
7.678977,0.101475,-0.050450,-0.466767
7.699028,0.057737,-0.063108,-0.470153
7.709037,0.087622,-0.042873,-0.478520
7.719078,0.154700,-0.065498,-0.482715
7.729087,-0.001979,-0.072510,-0.473567
7.739128,0.069467,-0.043776,-0.501007
7.749168,0.198408,-0.062441,-0.481511
7.769218,0.122615,-0.087664,-0.516023
7.779228,0.121701,-0.043976,-0.494454
7.789268,0.027850,-0.051021,-0.521453
7.799278,0.130131,-0.073860,-0.504186
7.809318,0.074847,-0.015946,-0.517952
7.819358,0.124728,-0.090844,-0.522441
7.839408,0.093934,-0.044787,-0.529786
7.849418,0.172827,-0.038656,-0.525266
7.859458,0.043831,-0.051052,-0.525681
7.869468,0.105648,-0.042639,-0.540426
7.879508,0.150374,-0.064209,-0.526517
7.889549,0.032095,-0.047745,-0.539585
7.909599,0.103491,-0.054399,-0.536214
7.909599,0.103491,-0.054399,-0.536214
7.919609,0.065102,-0.056365,-0.545944
7.929649,0.185581,-0.048279,-0.531686
7.939659,0.080079,-0.037201,-0.543675
7.949699,0.138629,-0.063027,-0.542567
7.959739,0.114192,-0.040566,-0.532915
7.979789,0.146154,-0.040635,-0.540304
7.989799,0.146127,-0.053475,-0.535024
7.999839,0.069339,-0.069224,-0.539584
8.009849,0.193049,-0.040787,-0.540175
8.019889,0.177073,-0.043999,-0.527416
8.029930,0.041639,-0.064858,-0.540708
8.049980,0.149414,-0.021453,-0.533795
8.059989,0.133307,-0.066264,-0.531915
8.070030,0.137618,-0.053503,-0.523297
8.080040,0.157837,-0.061009,-0.530754
8.090080,0.180273,-0.044020,-0.525271
8.100120,0.137601,-0.062067,-0.519065
8.120170,0.213282,-0.054801,-0.526299
8.130180,0.110903,-0.080125,-0.521361
8.140220,0.107751,-0.057637,-0.531945
8.150230,0.278338,-0.044374,-0.517524
8.160270,0.108795,-0.072652,-0.519195
8.170310,0.089602,-0.072560,-0.525657
8.190361,0.174876,-0.070716,-0.522208
8.200370,0.003237,-0.084016,-0.528086
8.210411,0.269687,-0.084887,-0.526285
8.220439,0.141897,-0.043870,-0.530717
8.230480,0.072482,-0.092759,-0.533277
8.240520,0.188684,-0.078150,-0.540364
8.260570,0.121505,-0.085367,-0.549130
8.270580,0.137532,-0.071541,-0.547952
8.280620,0.081042,-0.073504,-0.545981
8.290630,0.132205,-0.062915,-0.561812
8.300670,0.138603,-0.067253,-0.552201
8.310710,0.090614,-0.063777,-0.576886
8.330760,0.042661,-0.058261,-0.581266
8.340770,0.188683,-0.064146,-0.565935
8.350810,0.053406,-0.035950,-0.564039
8.350810,0.053406,-0.035950,-0.564039
8.370861,0.158891,-0.046972,-0.563800
8.380901,0.055471,-0.055134,-0.573738
8.390911,0.125751,-0.079940,-0.570457
8.390911,0.125751,-0.079940,-0.570457
8.400951,0.154734,-0.006362,-0.566824
8.421001,0.069281,-0.079813,-0.558862
8.431011,0.181373,-0.013970,-0.557172
8.431011,0.181373,-0.013970,-0.557172
8.441051,0.146155,-0.030942,-0.557350
8.451091,0.111978,-0.059691,-0.552239
8.481151,0.103471,-0.057568,-0.543707
8.481151,0.103471,-0.057568,-0.543707
8.491191,0.184596,-0.015139,-0.537941
8.501201,0.147303,-0.013970,-0.533766
8.511241,0.137623,-0.044899,-0.536075
8.521282,0.176080,-0.015142,-0.531555
8.551341,0.143018,-0.028968,-0.521030
8.551341,0.143018,-0.028968,-0.521030
8.561382,0.128139,-0.010739,-0.526326
8.571392,0.210193,-0.014200,-0.528252
8.581432,0.105738,-0.018147,-0.525355
8.591472,0.108896,-0.027729,-0.533937
8.611522,0.083417,0.005430,-0.527441
8.611522,0.083417,0.005430,-0.527441
8.621532,0.147253,-0.031047,-0.535983
8.631572,0.159079,-0.000171,-0.524054
8.641582,0.071659,-0.004118,-0.532860
8.651622,0.150455,-0.029994,-0.534901
8.661663,0.143094,-0.000124,-0.523030
8.691722,0.122878,0.017069,-0.531550
8.691722,0.122878,0.017069,-0.531550
8.701763,0.135542,-0.024586,-0.539189
8.711772,0.115379,-0.002175,-0.522048
8.721813,0.111106,0.003255,-0.538057
8.731853,0.112107,-0.024550,-0.530708
8.761913,0.074796,-0.022248,-0.540415
8.761913,0.074796,-0.022248,-0.540415
8.771953,0.097231,-0.002025,-0.541325
8.781963,0.074803,-0.019039,-0.541468
8.792003,0.118523,-0.012788,-0.538112
8.802043,0.103595,-0.011642,-0.544558
8.822093,0.112087,-0.025563,-0.542464
8.822093,0.112087,-0.025563,-0.542464
8.832103,0.112088,-0.025568,-0.541395
8.842143,0.075830,-0.037233,-0.534073
8.852153,0.114230,-0.022376,-0.540306
8.862194,0.144030,-0.042804,-0.531775
8.872234,0.089706,-0.028724,-0.536131
8.902294,0.103522,-0.044803,-0.532964
8.902294,0.103522,-0.044803,-0.532964
8.912334,0.140825,-0.044924,-0.532862
8.922344,0.126973,-0.045967,-0.528632
8.932384,0.123744,-0.053397,-0.536154
8.942424,0.134449,-0.042808,-0.524324
8.972484,0.137620,-0.052430,-0.524360
8.972484,0.137620,-0.052430,-0.524360
8.982524,0.137584,-0.071708,-0.512701
8.992534,0.126944,-0.056647,-0.528683
9.002574,0.170609,-0.073921,-0.519030
9.012615,0.087488,-0.067223,-0.523501
9.032665,0.156831,-0.045037,-0.520000
9.042674,0.119475,-0.064139,-0.520193
9.052715,0.091684,-0.092877,-0.521474
9.062725,0.149356,-0.051430,-0.517914
9.072765,0.114087,-0.083324,-0.524572
9.082805,0.097085,-0.069426,-0.516007
9.112865,0.109878,-0.068399,-0.515967
9.112865,0.109878,-0.068399,-0.515967
9.122905,0.147224,-0.055731,-0.510463
9.132915,0.103494,-0.066258,-0.512770
9.142955,0.158944,-0.054681,-0.514698
9.152996,0.137653,-0.051458,-0.504060
9.183055,0.119549,-0.046060,-0.504084
9.183055,0.119549,-0.046060,-0.504084
9.193096,0.119538,-0.051409,-0.501973
9.203105,0.133381,-0.055726,-0.501955
9.213158,0.084387,-0.045976,-0.497772
9.223198,0.143049,-0.030142,-0.498603
9.243248,0.048158,-0.044805,-0.494662
9.253258,0.149464,-0.028073,-0.488961
9.263298,0.112153,-0.035467,-0.480554
9.273308,0.072720,-0.036422,-0.477463
9.283348,0.160154,-0.024979,-0.472894
9.293388,0.106846,-0.033365,-0.469876
9.313438,0.152688,-0.033554,-0.461205
9.323448,0.100538,-0.008842,-0.456959
9.333488,0.107925,-0.035565,-0.457065
9.343498,0.141021,-0.024001,-0.440896
9.353539,0.055745,-0.021532,-0.452870
9.363579,0.186815,-0.035887,-0.442962
9.393639,0.181548,-0.023140,-0.424757
9.393639,0.181548,-0.023140,-0.424757
9.403679,0.052649,0.002934,-0.430331
9.413689,0.120678,-0.067806,-0.423000
9.423729,0.125163,0.009035,-0.415146
9.433769,0.104796,-0.029309,-0.422862
9.453819,0.134740,-0.001721,-0.405557
9.453819,0.134740,-0.001721,-0.405557
9.463829,0.110136,-0.039054,-0.398324
9.473869,0.086829,0.012283,-0.398146
9.483879,0.181601,-0.019000,-0.396963
9.493919,0.085759,0.002604,-0.383239
9.503960,0.084673,-0.000561,-0.390735
9.524010,0.050617,0.012320,-0.381154
9.534019,0.111269,-0.020958,-0.386485
9.544060,0.091075,-0.002758,-0.382182
9.554070,0.091082,-0.000627,-0.381103
9.564110,0.075052,-0.013365,-0.386549
9.574150,0.096385,-0.016719,-0.369415
9.594200,0.099564,-0.020981,-0.373699
9.604210,0.063361,-0.011277,-0.368412
9.614250,0.071868,-0.016629,-0.371618
9.624260,0.095288,-0.032775,-0.360948
9.634300,0.066537,-0.020914,-0.365244
9.644341,0.072910,-0.035947,-0.352479
9.664391,0.079319,-0.033857,-0.347110
9.664391,0.079319,-0.033857,-0.347110
9.674400,0.053728,-0.038045,-0.347201
9.684441,0.153928,-0.034109,-0.344769
9.694450,0.007944,-0.028346,-0.334463
9.704491,0.055829,-0.049805,-0.346182
9.714531,0.147565,-0.029883,-0.330880
9.734581,0.083498,-0.076694,-0.324869
9.744591,0.112508,0.000032,-0.309471
9.754631,0.034533,-0.053030,-0.327029
9.764641,0.079330,-0.058667,-0.294885
9.774681,0.079448,-0.008414,-0.307466
9.784721,0.102771,-0.065186,-0.287374
9.804771,0.145495,-0.032224,-0.286031
9.814781,0.059153,-0.051293,-0.259655
9.824821,0.060286,-0.021349,-0.269124
9.834831,0.170053,-0.033523,-0.253923
9.844872,0.048567,-0.033174,-0.244644
9.854912,0.107195,-0.030161,-0.244467
9.874962,0.074152,-0.038663,-0.230712
9.874962,0.074152,-0.038663,-0.230712
9.884972,0.090215,-0.015256,-0.223079
9.895012,0.097654,-0.030292,-0.210311
9.905022,0.066716,-0.040870,-0.210447
9.915062,0.067833,-0.028109,-0.199701
9.925102,0.099806,-0.029286,-0.198550
9.955162,0.071057,-0.030357,-0.178339
9.955162,0.071057,-0.030357,-0.178339
9.965202,0.106190,-0.050817,-0.166588
9.975212,-0.013148,-0.040833,-0.163666
9.985252,0.072076,-0.060374,-0.154977
9.995293,0.060428,-0.032569,-0.154878
10.025352,0.046564,-0.043269,-0.141080
10.025352,0.046564,-0.043269,-0.141080
10.035393,0.028448,-0.045372,-0.135799
10.045403,0.030584,-0.044316,-0.134720
10.055443,0.054054,-0.041234,-0.125027
10.065483,0.013537,-0.047510,-0.125168
10.095543,0.056185,-0.048777,-0.112238
10.095543,0.056185,-0.048777,-0.112238
10.105583,0.048743,-0.045579,-0.105834
10.115593,0.006111,-0.046519,-0.103820
10.125633,0.128750,-0.024526,-0.095899
10.135674,0.022167,-0.033862,-0.081283
10.155724,0.160850,-0.012103,-0.034864
10.165733,0.029665,-0.020003,-0.081197
10.175774,0.020009,-0.043466,-0.081335
10.185783,0.080882,-0.005274,-0.069235
10.195824,-0.039635,-0.029399,-0.079296
10.205864,0.068019,-0.031931,-0.069397
10.235951,0.023397,0.016241,-0.062883
10.235951,0.023397,0.016241,-0.062883
10.245991,-0.018216,0.000368,-0.065210
10.256001,0.024322,-0.038252,-0.057797
10.266041,-0.025560,0.039880,-0.059702
10.276081,0.031847,-0.014782,-0.057665
10.306141,0.045720,-0.014882,-0.045877
10.306141,0.045720,-0.014882,-0.045877
10.316181,-0.066144,0.001495,-0.045041
10.326191,0.009605,0.032244,-0.050027
10.336232,0.005275,0.005540,-0.045892
10.346272,-0.051165,0.020654,-0.041704
10.366322,-0.008506,0.029049,-0.039410
10.376332,-0.027667,0.036577,-0.037291
10.386372,-0.003210,0.014055,-0.034125
10.396382,-0.030841,0.045130,-0.037259
10.406422,0.005414,0.050342,-0.034998
10.416462,0.007491,0.031118,-0.036151
10.436512,-0.038331,0.035553,-0.039462
10.446522,0.041643,0.043787,-0.028520
10.456562,-0.034009,0.054742,-0.035086
10.466572,0.007475,0.020398,-0.027656
10.476612,-0.009522,0.039666,-0.025476
10.486653,-0.041534,0.030194,-0.033087
10.506703,-0.012737,0.034347,-0.027646
10.516712,-0.050082,0.020595,-0.029951
10.526753,0.028826,0.033144,-0.027537
10.536763,-0.001002,0.037502,-0.025462
10.546803,-0.039413,0.023759,-0.028838
10.556843,0.041610,0.023425,-0.013661
10.566853,-0.040470,0.031274,-0.036283
10.576893,0.029866,0.019217,-0.019054
10.586903,0.012815,0.020345,-0.020164
10.596943,-0.043691,0.017355,-0.026744
10.606953,0.043694,0.002024,-0.006279
10.616993,-0.017048,0.015123,-0.024544
10.627034,-0.006408,0.002217,-0.012826
10.647084,-0.021384,-0.015874,-0.016157
10.657093,0.009522,-0.025661,-0.000095
10.667134,0.004206,-0.015992,-0.008610
10.677143,0.013779,-0.022426,-0.009682
10.687184,0.022321,-0.025733,0.006349
10.697224,-0.106661,-0.032790,0.005959
10.717274,0.121440,-0.043289,0.037518
10.717274,0.121440,-0.043289,0.037518
10.727284,-0.112976,-0.040563,0.073203
10.737324,-0.210122,-0.045133,-0.023227
10.747334,-0.008534,-0.025800,0.041515
10.757374,-0.022357,0.015074,-0.010673
10.767414,0.058433,-0.094396,0.047785
10.787464,-0.030970,-0.020170,-0.004454
10.797474,0.074481,-0.088177,0.076700
10.807514,-0.072491,-0.008328,0.004033
10.817524,0.051192,-0.020740,0.059863
10.827565,-0.003271,-0.049307,0.040350
10.837605,0.037325,-0.019582,0.050217
10.857655,-0.024513,-0.022544,0.041486
10.867665,0.084284,-0.012395,0.079222
10.877705,-0.044783,-0.035339,0.050983
10.887715,-0.019142,-0.021615,0.067142
10.897755,0.031030,0.004900,0.071679
10.907795,-0.012719,-0.013108,0.070405
10.927845,-0.015875,-0.002458,0.078992
10.927845,-0.015875,-0.002458,0.078992
10.937855,-0.014812,-0.003530,0.078990
10.947895,0.032039,-0.029393,0.096089
10.957905,-0.004121,0.007105,0.081206
10.967945,0.018271,-0.003774,0.107922
10.977986,-0.011607,-0.006795,0.089666
10.998036,-0.001974,-0.003723,0.111071
11.008045,0.002311,0.010197,0.100467
11.018086,0.062998,-0.018885,0.111179
11.028096,-0.023298,-0.005785,0.109934
11.038136,-0.005115,0.012266,0.119684
11.048176,0.050269,0.003588,0.110182
11.068226,-0.026395,0.024072,0.121817
11.078236,0.034275,-0.012496,0.134631
11.088276,0.004451,-0.002762,0.129253
11.098286,-0.038095,0.024034,0.137808
11.108326,0.039683,0.016321,0.134782
11.118367,0.031113,-0.007211,0.148534
11.138417,-0.034961,0.006988,0.127054
11.148426,0.013051,0.009904,0.154974
11.158467,-0.055122,0.027238,0.149526
11.168476,-0.072225,0.012373,0.142999
11.178517,-0.022128,-0.003961,0.175107
11.188557,-0.024188,0.038905,0.145394
11.208607,-0.046670,-0.007024,0.162206
11.218662,-0.066886,-0.010299,0.190977
11.228702,-0.013612,-0.010421,0.180441
11.238712,-0.018861,0.001191,0.212528
11.248752,-0.018858,-0.030057,0.271132
11.258792,-0.012356,-0.002408,0.291577
11.278842,-0.040189,-0.059024,0.313664
11.288852,0.032479,-0.003859,0.341900
11.298893,0.070973,-0.000071,0.417867
11.308902,0.052692,-0.079211,0.453762
11.318943,0.034698,-0.045075,0.474169
11.328983,-0.018428,-0.036803,0.568065
11.349033,0.083936,-0.072833,0.664316
11.359043,0.116092,-0.047660,0.739299
11.369083,0.065118,-0.012531,0.798076
11.379093,0.053490,-0.026801,0.887706
11.389133,0.080174,-0.049633,0.954970
11.399173,0.165691,-0.001160,1.034483
11.419223,0.100835,-0.030531,1.192260
11.429233,0.067799,0.005111,1.130381
11.439273,-0.117796,-0.014289,1.068888
11.449283,-0.001599,0.017569,1.027700
11.459323,-0.054910,0.002731,1.040301
11.469364,-0.256359,-0.027813,1.087669
11.489414,-0.144288,0.024091,1.101043
11.499424,-0.107082,-0.015578,1.108436
11.509464,0.010326,0.023357,1.150605
11.519474,-0.132401,0.042927,1.174872
11.529514,-0.054722,-0.008637,1.185525
11.539554,-0.146284,0.007513,1.220599
11.559604,-0.132407,0.000934,1.247312
11.569614,-0.084342,0.019839,1.281717
11.579654,-0.128083,0.002884,1.283652
11.589664,-0.089814,-0.021702,1.262277
11.599704,-0.144155,-0.023727,1.276004
11.609745,-0.118515,0.009392,1.255936
11.629795,-0.093924,0.004757,1.315802
11.639804,-0.175989,0.011482,1.304925
11.649845,0.000986,0.018281,1.326810
11.659854,-0.139354,0.037035,1.521994
11.669895,-0.092421,0.039995,1.541366
11.679935,-0.057296,-0.001986,1.587197
11.689945,-0.134849,0.034101,1.687566
11.699985,-0.091139,0.024226,1.713277
11.709995,-0.144184,0.048400,1.831816
11.720035,-0.128081,0.024282,1.952455
11.730045,-0.126003,-0.016488,1.990724
11.740085,0.886255,0.491744,0.194918
11.750125,-0.881758,-0.388150,0.478559
11.770175,-0.015846,-0.002549,0.098220
11.780185,-0.141198,0.080576,0.221111
11.790226,0.059988,-0.104567,0.390637
11.800235,-0.187958,-0.011260,0.476919
11.810276,-0.003780,-0.082307,0.469614
11.810276,-0.003780,-0.082307,0.469614
11.830326,-0.064459,-0.055407,0.468505
11.850376,-0.126275,-0.067054,0.489644
11.860416,-0.097573,-0.087378,0.476808
11.870426,-0.118880,-0.091646,0.490616
11.880466,-0.115568,-0.051085,0.492954
11.890506,-0.107161,-0.091669,0.487444
11.900516,-0.109322,-0.101263,0.485256
11.910556,-0.145565,-0.100052,0.479820
11.910556,-0.145565,-0.100052,0.479820
11.930606,-0.130636,-0.099048,0.483071
11.940616,-0.135989,-0.105418,0.478753
11.950656,-0.137008,-0.091557,0.484157
11.960697,-0.131715,-0.102233,0.479848
11.970706,-0.144482,-0.092570,0.477722
11.990757,-0.137026,-0.097964,0.484127
12.000797,-0.131706,-0.093644,0.470275
12.010807,-0.126361,-0.092634,0.478840
12.020847,-0.140238,-0.091445,0.462784
12.030887,-0.147662,-0.089381,0.483070
12.030887,-0.147662,-0.089381,0.483070
12.040897,-0.122111,-0.093685,0.472438
12.070987,-0.140171,-0.076575,0.479946
12.070987,-0.140171,-0.076575,0.479946
12.080997,-0.168987,-0.079589,0.459556
12.091037,-0.122102,-0.088325,0.468190
12.111087,-0.129571,-0.089354,0.464960
12.121128,-0.207328,-0.074165,0.468022
12.121128,-0.207328,-0.074165,0.468022
12.131137,-0.108254,-0.088350,0.463956
12.141178,-0.192391,-0.073186,0.476613
12.151187,-0.091181,-0.076618,0.455513
12.161228,-0.167834,-0.063710,0.488476
12.171268,-0.123134,-0.078736,0.473574
12.181278,-0.074076,-0.071455,0.481221
12.211368,-0.118763,-0.054314,0.500407
12.221392,-0.078325,-0.067175,0.482298
12.231432,-0.093258,-0.080017,0.498219
12.241472,-0.096410,-0.062915,0.497223
12.251482,-0.082601,-0.081125,0.499312
12.281573,-0.051711,-0.085477,0.495104
12.281573,-0.051711,-0.085477,0.495104
12.291582,-0.095348,-0.065059,0.498284
12.301623,-0.101761,-0.077909,0.509956
12.311663,-0.055955,-0.081216,0.500453
12.321673,-0.088925,-0.057630,0.503678
12.351763,-0.092124,-0.062999,0.512190
12.351763,-0.092124,-0.062999,0.512190
12.361773,-0.087879,-0.067265,0.507908
12.371813,-0.079370,-0.070471,0.502576
12.381853,-0.087887,-0.068318,0.504699
12.391863,-0.107080,-0.072537,0.506762
12.411913,-0.092158,-0.069356,0.501477
12.421953,-0.132678,-0.072393,0.493874
12.431963,-0.095379,-0.076811,0.499297
12.442003,-0.123069,-0.070324,0.501387
12.452044,-0.077297,-0.085373,0.490761
12.462053,-0.125173,-0.057477,0.496101
12.492144,-0.083638,-0.067208,0.492965
12.492144,-0.083638,-0.067208,0.492965
12.502154,-0.125209,-0.068136,0.491778
12.512194,-0.095351,-0.060742,0.488691
12.522234,-0.100699,-0.068205,0.489709
12.532244,-0.117752,-0.067072,0.487531
12.562334,-0.109266,-0.071280,0.468306
12.562334,-0.109266,-0.071280,0.468306
12.572344,-0.130544,-0.058406,0.470445
12.582384,-0.122065,-0.072286,0.463994
12.592425,-0.130552,-0.058380,0.465104
12.602434,-0.135901,-0.064761,0.462923
12.622484,-0.135887,-0.052958,0.451228
12.632525,-0.135900,-0.058302,0.452271
12.642534,-0.130548,-0.047620,0.448064
12.652575,-0.127378,-0.058315,0.449090
12.662615,-0.129482,-0.047624,0.448066
12.672625,-0.124194,-0.057207,0.438422
12.702715,-0.138051,-0.063620,0.449035
12.702715,-0.138051,-0.063620,0.449035
12.712725,-0.097564,-0.056170,0.426750
12.722765,-0.131638,-0.050770,0.437363
12.732805,-0.149745,-0.047517,0.439465
12.742815,-0.123180,-0.072126,0.430877
12.762865,-0.147674,-0.062415,0.426582
12.762865,-0.147674,-0.062415,0.426582
12.772906,-0.123169,-0.071083,0.436223
12.782915,-0.133820,-0.061377,0.423421
12.792956,-0.111439,-0.066834,0.433070
12.802996,-0.133806,-0.072192,0.452211
12.813006,-0.077360,-0.069015,0.419268
12.833056,-0.119931,-0.063684,0.450153
12.833056,-0.119931,-0.063684,0.450153
12.843096,-0.044291,-0.070292,0.440717
12.853106,-0.094301,-0.043461,0.447115
12.863146,-0.069832,-0.063867,0.454564
12.873186,-0.092187,-0.053105,0.452416
12.883196,-0.061276,-0.054293,0.456769
12.903246,-0.069818,-0.059600,0.455652
12.903246,-0.069818,-0.059600,0.455652
12.913286,-0.074072,-0.060695,0.464181
12.923296,-0.066578,-0.045743,0.458931
12.933336,-0.036795,-0.070427,0.464238
12.943346,-0.094332,-0.063828,0.463042
12.953386,-0.051722,-0.067130,0.454598
12.983477,-0.065550,-0.062863,0.465262
12.983477,-0.065550,-0.062863,0.465262
12.993487,-0.051703,-0.066112,0.465285
13.003527,-0.126188,-0.031782,0.483402
13.013537,0.016398,-0.100457,0.454629
13.023577,-0.100684,-0.044554,0.456706
13.043627,-0.068762,-0.067115,0.463097
13.053667,-0.067669,-0.049970,0.450363
13.063677,-0.084746,-0.060610,0.453470
13.073717,-0.076227,-0.062768,0.452415
13.083727,-0.081577,-0.066992,0.445971
13.093767,-0.081543,-0.056328,0.449226
13.113817,-0.099689,-0.068032,0.452325
13.123858,-0.076253,-0.065916,0.440650
13.133867,-0.100713,-0.049848,0.447067
13.143908,-0.079431,-0.062737,0.448133
13.153917,-0.100710,-0.047702,0.444941
13.163958,-0.097518,-0.053082,0.451334
13.184008,-0.116685,-0.047691,0.453443
13.194048,-0.070897,-0.058478,0.444972
13.204058,-0.118803,-0.041261,0.450263
13.214098,-0.076210,-0.055282,0.450314
13.224157,-0.089017,-0.060570,0.448117
13.234197,-0.159326,-0.046444,0.444785
13.254247,-0.139114,-0.052851,0.430924
13.264288,-0.172124,-0.046377,0.439409
13.274297,-0.112482,-0.060439,0.436302
13.284338,-0.170015,-0.051698,0.434048
13.294347,-0.141215,-0.054018,0.453345
13.304388,-0.135921,-0.055003,0.431991
13.324438,-0.141230,-0.052895,0.441600
13.324438,-0.141230,-0.052895,0.441600
13.334478,-0.138060,-0.057126,0.430906
13.344488,-0.144407,-0.046487,0.443758
13.354528,-0.122078,-0.059319,0.432008
13.364538,-0.162508,-0.038943,0.441607
13.374578,-0.109289,-0.060434,0.433107
13.394628,-0.124164,-0.047606,0.440604
13.404668,-0.128437,-0.049717,0.438446
13.414678,-0.117795,-0.056165,0.439513
13.424718,-0.139098,-0.053980,0.443737
13.434728,-0.098602,-0.050867,0.435318
13.444768,-0.128454,-0.061510,0.448004
13.464819,-0.095424,-0.061587,0.441685
13.464819,-0.095424,-0.061587,0.441685
13.474859,-0.155084,-0.052855,0.442630
13.484869,-0.070965,-0.075499,0.431005
13.494909,-0.163613,-0.056051,0.446864
13.504919,-0.092275,-0.068987,0.423499
13.514959,-0.131667,-0.063605,0.441576
13.535009,-0.111428,-0.059329,0.426697
13.545049,-0.091179,-0.068009,0.441667
13.555059,-0.133779,-0.055045,0.439474
13.565099,-0.066690,-0.065856,0.421448
13.575109,-0.094350,-0.058387,0.441703
13.585149,-0.094375,-0.058306,0.424612
13.605199,-0.090114,-0.061544,0.428882
13.615240,-0.117840,-0.065715,0.426649
13.625249,-0.088010,-0.067928,0.422448
13.635290,-0.126365,-0.066771,0.429825
13.645299,-0.091244,-0.073186,0.407459
13.655340,-0.113571,-0.062515,0.424539
13.675390,-0.090190,-0.077462,0.407442
13.685430,-0.165836,-0.067604,0.407279
13.695440,-0.055108,-0.097760,0.385010
13.705480,-0.165828,-0.066552,0.410489
13.715490,-0.107292,-0.085869,0.390263
13.725530,-0.127519,-0.077259,0.390248
13.745580,-0.123315,-0.095398,0.383765
13.745580,-0.123315,-0.095398,0.383765
13.755621,-0.143514,-0.075026,0.380601
13.765630,-0.141409,-0.079259,0.370972
13.775671,-0.123292,-0.083620,0.377411
13.785680,-0.128609,-0.070717,0.362503
13.795721,-0.149909,-0.067464,0.366732
13.825811,-0.175500,-0.066267,0.357053
13.825811,-0.175500,-0.066267,0.357053
13.835821,-0.124395,-0.078115,0.343251
13.845861,-0.147835,-0.067289,0.328283
13.855871,-0.177643,-0.064069,0.345307
13.865911,-0.129767,-0.083346,0.323984
13.885961,-0.132966,-0.079024,0.315450
13.885961,-0.132966,-0.079024,0.315450
13.896001,-0.168122,-0.072492,0.313247
13.906011,-0.141463,-0.061854,0.303757
13.916051,-0.163834,-0.056426,0.300516
13.926061,-0.123357,-0.061872,0.295261
13.936101,-0.155317,-0.052116,0.286674
13.956152,-0.140440,-0.061720,0.274919
13.956152,-0.140440,-0.061720,0.274919
13.966192,-0.136154,-0.051035,0.270708
13.976202,-0.146830,-0.054173,0.264255
13.986242,-0.107450,-0.068134,0.253615
13.996252,-0.121275,-0.054181,0.248302
14.006292,-0.125544,-0.051996,0.240823
14.026342,-0.128770,-0.055123,0.226913
14.036382,-0.109608,-0.058349,0.218405
14.046392,-0.124514,-0.052961,0.218389
14.056432,-0.094690,-0.050846,0.202458
14.066442,-0.131969,-0.043259,0.204528
14.076482,-0.057429,-0.060528,0.191833
14.106573,-0.086152,-0.037983,0.186520
14.106573,-0.086152,-0.037983,0.186520
14.116582,-0.078720,-0.042228,0.175838
14.126623,-0.056348,-0.046577,0.176947
14.136633,-0.064884,-0.046519,0.170515
14.146673,-0.063788,-0.032614,0.165242
14.166723,-0.016960,-0.051944,0.155667
14.176763,-0.070134,-0.015512,0.166374
14.186773,-0.045713,-0.044385,0.157759
14.196813,-0.040298,-0.018823,0.168577
14.206823,-0.059497,-0.023022,0.166368
14.216863,-0.000914,-0.031715,0.157943
14.246959,-0.046694,-0.017719,0.165360
14.246959,-0.046694,-0.017719,0.165360
14.256968,-0.026487,-0.032731,0.164277
14.267009,-0.034958,-0.015641,0.169675
14.277018,-0.036033,-0.019920,0.171789
14.287059,-0.029627,-0.019976,0.179283
14.307109,-0.020022,-0.018969,0.185724
14.317149,-0.040302,-0.025271,0.177092
14.327159,-0.000876,-0.031837,0.183580
14.337199,-0.032790,-0.013608,0.189987
14.347209,-0.011526,-0.029671,0.184629
14.357249,-0.013639,-0.028647,0.195310
14.377299,-0.011528,-0.036130,0.195280
14.387339,-0.030678,-0.025403,0.198483
14.397349,-0.016863,-0.038248,0.195256
14.407389,-0.018963,-0.031879,0.204894
14.417399,-0.033881,-0.029685,0.202726
14.427440,-0.006198,-0.040459,0.203820
14.447490,-0.020030,-0.036178,0.211280
14.457530,-0.040258,-0.025412,0.207002
14.467540,-0.039247,-0.047863,0.211171
14.477580,-0.037032,-0.019051,0.214518
14.487590,-0.022187,-0.045787,0.212297
14.497630,-0.061617,-0.044596,0.213261
14.517680,-0.034951,-0.038285,0.215501
14.527720,-0.042348,-0.016918,0.218787
14.537730,-0.038201,-0.056420,0.213270
14.547770,-0.068998,-0.016816,0.215509
14.557780,-0.058418,-0.045690,0.216470
14.567820,-0.060509,-0.028576,0.212272
14.587870,-0.070187,-0.061665,0.215293
14.587870,-0.070187,-0.061665,0.215293
14.597911,-0.064684,0.004554,0.210281
14.607920,-0.059553,-0.062702,0.201431
14.617961,-0.092462,-0.022074,0.214351
14.627971,-0.063736,-0.029547,0.194099
14.638011,-0.092506,-0.034859,0.207881
14.658061,-0.103278,-0.064625,0.186346
14.668101,-0.115894,-0.011273,0.204723
14.678111,-0.080823,-0.033693,0.179077
14.688151,-0.099992,-0.039066,0.199295
14.698161,-0.070129,-0.018761,0.175973
14.708201,-0.105277,-0.019796,0.192962
14.728251,-0.093566,-0.014408,0.174860
14.728251,-0.093566,-0.014408,0.174860
14.738292,-0.093577,-0.024070,0.185497
14.748301,-0.049906,-0.026282,0.171720
14.758342,-0.099893,0.008019,0.179222
14.768351,-0.048856,-0.031620,0.170630
14.778392,-0.089306,-0.009027,0.163147
14.798442,-0.065889,-0.015470,0.154636
14.808482,-0.091423,-0.009065,0.172755
14.818492,-0.076545,-0.016519,0.157806
14.828532,-0.049930,-0.024050,0.151435
14.838542,-0.102094,-0.007912,0.162049
14.848582,-0.042498,-0.023983,0.132228
14.868632,-0.065943,-0.023917,0.134299
14.868632,-0.065943,-0.023917,0.134299
14.878672,-0.061633,-0.012230,0.143981
14.888682,-0.074426,-0.015407,0.147135
14.898722,-0.028669,-0.032562,0.130089
14.908732,-0.077571,0.003826,0.147217
14.918773,-0.029767,-0.044305,0.130030
14.938823,-0.014744,-0.011284,0.137705
14.948863,-0.025476,-0.035791,0.133287
14.958873,-0.043511,-0.005835,0.134447
14.968913,-0.014779,-0.026255,0.141907
14.978923,-0.046728,-0.010071,0.129077
14.988963,0.000134,-0.024122,0.132345
15.009013,0.009679,-0.035855,0.122702
15.009013,0.009679,-0.035855,0.122702
15.019053,-0.041302,0.012227,0.152698
15.029063,-0.001983,-0.019853,0.134495
15.039103,0.001216,-0.020947,0.137704
15.049113,-0.007188,0.016398,0.150676
15.059153,0.026788,-0.023161,0.136696
15.079203,0.030029,-0.013615,0.148500
15.089244,0.012972,-0.013545,0.145249
15.099253,-0.008284,-0.003971,0.167668
15.109294,0.017245,-0.009282,0.144213
15.119304,0.037481,-0.015765,0.146374
15.129344,-0.018910,0.006733,0.169826
15.149394,-0.023230,-0.012460,0.166518
15.159434,0.004471,-0.008213,0.152728
15.169444,0.012907,-0.035961,0.143006
15.179484,-0.046642,-0.002803,0.172908
15.189494,0.002273,-0.028461,0.145149
15.199534,0.006545,-0.025271,0.145176
15.219629,0.021380,-0.046592,0.126956
15.229670,-0.033919,-0.016637,0.153650
15.239679,-0.048837,-0.019833,0.162140
15.249720,-0.001002,-0.050827,0.134352
15.259729,-0.025399,-0.023107,0.161121
15.269770,-0.038205,-0.016552,0.138684
15.289820,-0.088270,-0.016475,0.156705
15.299860,0.030944,-0.056230,0.125869
15.309870,-0.044621,-0.033699,0.155676
15.319910,-0.041455,-0.041150,0.148172
15.329920,-0.013818,-0.061475,0.136402
15.339960,-0.038234,-0.028309,0.140765
15.360010,-0.040389,-0.035768,0.138587
15.370050,-0.030827,-0.049707,0.143888
15.380060,0.002197,-0.046535,0.127972
15.390100,-0.045740,-0.039992,0.132143
15.400110,-0.021271,-0.059320,0.137460
15.410151,-0.070255,-0.037751,0.126745
15.430201,-0.048982,-0.051688,0.123533
15.440241,-0.030934,-0.074143,0.117067
15.450251,-0.086272,-0.047300,0.124519
15.460291,-0.013856,-0.061353,0.110766
15.470301,-0.073495,-0.047301,0.116008
15.480341,-0.046906,-0.064445,0.109591
15.500391,-0.043671,-0.057035,0.121386
15.510431,-0.068196,-0.047223,0.095727
15.520441,0.001042,-0.063482,0.099046
15.530481,-0.074586,-0.055836,0.114897
15.540491,-0.014979,-0.068709,0.086159
15.540491,-0.014979,-0.068709,0.086159
15.560572,-0.023483,-0.063367,0.091502
15.580622,-0.044738,-0.046256,0.101138
15.590631,-0.029859,-0.054787,0.088320
15.600672,-0.036247,-0.051558,0.087249
15.610682,-0.053296,-0.053669,0.093602
15.620722,-0.058648,-0.061117,0.091415
15.620722,-0.058648,-0.061117,0.091415
15.640772,-0.044766,-0.048321,0.086173
15.660822,-0.059679,-0.049376,0.093604
15.660822,-0.059679,-0.049376,0.093604
15.680872,-0.054315,-0.039807,0.099005
15.690912,-0.038386,-0.051526,0.081903
15.700922,-0.043699,-0.052637,0.094701
15.710962,-0.051153,-0.047248,0.089365
15.731012,-0.070275,-0.034456,0.107532
15.731012,-0.070275,-0.034456,0.107532
15.741053,-0.010641,-0.037722,0.079908
15.751062,-0.030890,-0.048432,0.100098
15.761103,-0.051146,-0.041883,0.084049
15.771112,-0.017037,-0.044160,0.090542
15.791193,-0.007488,-0.050518,0.073447
15.811243,-0.024491,-0.031229,0.071355
15.811243,-0.024491,-0.031229,0.071355
15.821253,-0.045835,-0.046152,0.079771
15.831293,-0.037260,-0.024790,0.073486
15.841303,-0.039416,-0.034400,0.074503
15.851343,-0.042628,-0.035422,0.067012
15.861383,-0.033064,-0.042903,0.061662
15.891443,-0.066066,-0.028913,0.061637
15.891443,-0.066066,-0.028913,0.061637
15.901484,-0.033103,-0.048167,0.045614
15.911493,-0.034172,-0.052461,0.050932
15.921534,-0.060808,-0.050248,0.053005
15.931574,-0.039429,-0.021433,0.042518
15.961634,-0.019239,-0.043930,0.043536
15.961634,-0.019239,-0.043930,0.043536
15.971674,-0.044830,-0.047041,0.041314
15.981684,-0.020272,-0.028950,0.038263
15.991724,-0.020162,0.005173,0.049107
16.001764,-0.016069,-0.049240,0.034974
16.021814,-0.018069,-0.001176,0.035196
16.031824,-0.023475,-0.035383,0.045701
16.041864,-0.025576,-0.019317,0.037225
16.051874,-0.011691,-0.017302,0.053297
16.061914,-0.010652,-0.019375,0.039403
16.071955,-0.003193,-0.018316,0.036224
16.092005,0.013875,-0.009803,0.030970
16.092005,0.013875,-0.009803,0.030970
16.102015,-0.042618,-0.022526,0.049982
16.112055,-0.020247,-0.019334,0.037240
16.122065,-0.010658,-0.024740,0.044718
16.132105,-0.032996,-0.009727,0.046864
16.142145,-0.014913,-0.019367,0.040459
16.152155,-0.014914,-0.022596,0.045785
16.162195,-0.007452,-0.021547,0.044742
16.172205,-0.026693,-0.045004,0.049919
16.182245,0.007504,-0.007702,0.042713
16.192255,-0.007418,-0.011961,0.050129
16.202295,0.006348,-0.038653,0.039359
16.212336,0.016023,-0.012017,0.045921
16.232402,0.027686,-0.030174,0.038389
16.232402,0.027686,-0.030174,0.038389
16.242411,0.040523,-0.019592,0.050225
16.252452,0.009546,-0.045127,0.051087
16.262461,0.041515,-0.038752,0.036251
16.272502,0.011758,-0.020612,0.059755
16.282542,0.026534,-0.056828,0.029714
16.292552,-0.003255,-0.049357,0.051032
16.302592,0.011693,-0.030102,0.034073
16.312602,0.005144,-0.084530,0.030593
16.322642,-0.024570,-0.048215,0.049910
16.332652,0.032927,-0.054688,0.024401
16.342692,-0.010788,-0.069573,0.040233
16.352732,0.005230,-0.051409,0.027545
16.372782,-0.001184,-0.063176,0.036017
16.372782,-0.001184,-0.063176,0.036017
16.382792,0.019100,-0.048271,0.031871
16.392833,0.010561,-0.052510,0.030759
16.402842,0.011625,-0.052508,0.029694
16.412883,-0.004392,-0.066365,0.034925
16.422923,-0.010786,-0.056652,0.017862
16.442973,-0.022495,-0.056659,0.027443
16.452983,-0.003333,-0.058807,0.016804
16.463023,-0.041726,-0.070454,0.021984
16.473033,-0.026745,-0.046993,0.018932
16.483073,-0.032097,-0.056597,0.021008
16.493113,-0.035298,-0.057655,0.020994
16.523173,-0.036360,-0.050120,0.009276
16.523173,-0.036360,-0.050120,0.009276
16.533213,-0.023560,-0.049119,0.014658
16.543223,-0.026639,-0.011782,0.025508
16.553263,-0.019296,-0.046982,0.011475
16.563304,-0.032019,-0.028836,0.022208
16.583354,-0.042722,-0.042665,0.017840
16.593364,-0.046938,-0.019101,0.006189
16.603404,-0.024604,-0.039489,0.011496
16.613414,-0.038372,-0.005250,0.007347
16.623454,-0.023566,-0.050177,0.012516
16.633494,-0.035232,-0.024468,0.004060
16.653544,-0.027751,-0.022402,0.013704
16.663554,-0.003280,-0.028814,-0.002282
16.673594,-0.043723,-0.021323,0.022211
16.683604,0.000959,-0.034137,-0.008705
16.693644,-0.044789,-0.018085,0.015814
16.703685,-0.049110,-0.030816,0.000787
16.723735,-0.055486,-0.028700,0.009325
16.733744,-0.014008,-0.053331,-0.004564
16.743785,-0.051200,-0.019092,0.007246
16.753794,-0.002170,-0.013876,-0.000072
16.763835,-0.027780,-0.027696,0.004065
16.773875,-0.021432,-0.046960,0.008264
16.793925,-0.023539,-0.038415,0.009367
16.803935,-0.014967,-0.021351,0.008403
16.813975,0.000990,-0.027770,-0.000129
16.823985,-0.007488,-0.017123,0.012717
16.834025,-0.001080,-0.008570,0.006366
16.844065,-0.001144,-0.033143,0.008386
16.864115,0.004163,-0.032011,-0.008686
16.864115,0.004163,-0.032011,-0.008686
16.874125,-0.032016,-0.024539,0.016887
16.884166,-0.039453,-0.009509,0.005187
16.894175,0.009478,-0.040602,-0.002302
16.904216,-0.062847,0.002249,0.019065
16.914256,0.012709,-0.023485,-0.010758
16.934306,-0.009581,0.005381,-0.002137
16.944316,-0.012921,-0.048015,-0.000263
16.954356,-0.038315,0.015035,0.008511
16.964366,-0.006398,0.001109,-0.004285
16.974406,-0.008552,-0.010662,0.002062
16.984446,-0.038360,0.002250,0.002041
17.004496,-0.030818,0.029977,0.005398
17.014506,-0.018103,0.003242,0.004238
17.024546,-0.017022,0.016115,-0.008517
17.034556,-0.009612,-0.004215,-0.005388
17.044596,-0.027747,-0.009491,-0.006531
17.054637,-0.018018,0.034212,0.004385
17.084697,-0.019176,0.004344,-0.002169
17.084697,-0.019176,0.004344,-0.002169
17.094737,-0.012802,-0.000996,-0.006449
17.104747,-0.041598,-0.006227,-0.009758
17.114787,-0.027715,0.003334,-0.008607
17.124827,-0.036241,0.001206,-0.004367
17.144877,-0.032041,-0.020151,-0.007661
17.144877,-0.032041,-0.020151,-0.007661
17.154887,-0.026677,-0.006275,-0.009717
17.164927,-0.019241,-0.015916,-0.008674
17.174937,-0.026665,-0.004160,-0.005434
17.184977,0.002025,-0.026599,-0.022553
17.195018,-0.036295,-0.022319,0.001931
17.215068,-0.035275,-0.037258,-0.001342
17.215068,-0.035275,-0.037258,-0.001342
17.225118,-0.013934,-0.019097,-0.017220
17.235159,-0.008637,-0.035168,-0.009804
17.245168,-0.040567,-0.020124,-0.007685
17.255209,-0.002369,-0.074647,-0.021724
17.265249,-0.037396,-0.030823,-0.005590
17.295309,-0.037485,-0.056393,-0.018530
17.295309,-0.037485,-0.056393,-0.018530
17.305349,-0.015145,-0.064953,-0.030259
17.315359,-0.027843,-0.047967,-0.000304
17.325399,-0.017211,-0.044686,-0.023760
17.335439,0.021113,-0.065137,-0.016273
17.355490,0.018928,-0.075733,-0.032352
17.365499,-0.026755,-0.040500,0.000803
17.375540,0.013709,-0.041593,-0.021523
17.385549,-0.012981,-0.065062,-0.008889
17.395590,0.015888,-0.027747,-0.015042
17.405630,-0.023615,-0.059718,-0.002484
17.435690,-0.005473,-0.045848,-0.011982
17.435690,-0.005473,-0.045848,-0.011982
17.445730,0.019049,-0.038412,-0.020425
17.455740,-0.005318,0.007523,-0.006388
17.465780,0.005149,-0.055464,-0.018408
17.475820,-0.001144,-0.019138,-0.017185
17.495870,0.014834,-0.014853,-0.031007
17.505880,-0.009623,-0.009565,-0.003276
17.515920,-0.039473,-0.006214,-0.014025
17.525930,0.012679,-0.023389,-0.031054
17.535970,-0.052178,0.014027,0.005263
17.546011,0.006258,-0.029751,-0.036443
17.576071,0.018096,0.015095,-0.042607
17.576071,0.018096,0.015095,-0.042607
17.586111,-0.063994,-0.017957,0.001875
17.596121,-0.033112,-0.009357,-0.031114
17.606161,0.018132,0.016056,-0.020170
17.616201,-0.061702,0.036465,0.009616
17.636251,-0.033039,-0.000971,0.002041
17.646261,-0.003226,0.004409,-0.026693
17.656301,-0.008453,0.034267,-0.013748
17.666311,-0.012787,0.001109,-0.000030
17.676351,-0.002104,0.025774,-0.028726
17.686392,-0.008546,-0.005297,-0.003253
17.706442,0.010649,0.002147,-0.009574
17.716451,-0.020278,-0.005233,-0.008627
17.726492,0.006376,-0.003194,-0.006407
17.736501,-0.026681,-0.007338,-0.010791
17.746542,0.006335,-0.010604,-0.020329
17.756582,-0.021366,-0.017007,-0.002276
17.776632,-0.017103,-0.015943,-0.004396
17.786642,0.003144,-0.011692,-0.013933
17.796682,-0.011823,-0.030886,-0.009793
17.806692,0.011602,-0.038433,-0.010832
17.816732,-0.011805,-0.025557,-0.007631
17.826772,0.014787,-0.045944,-0.005518
17.846823,0.009511,-0.028860,-0.001178
17.846823,0.009511,-0.028860,-0.001178
17.856832,0.008355,-0.054421,-0.015189
17.866873,0.009531,-0.019229,-0.005406
17.876882,0.006201,-0.062963,-0.014167
17.886923,0.018982,-0.066208,-0.014148
17.896963,-0.033098,-0.021251,-0.000192
17.917013,0.003036,-0.056590,-0.004532
17.927023,-0.015125,-0.067170,-0.013178
17.937063,0.018997,-0.060868,-0.014122
17.947073,-0.010768,-0.030854,-0.017267
17.957113,0.013636,-0.073676,-0.012061
17.967153,0.018006,-0.027709,-0.024650
17.987203,-0.024726,-0.070343,-0.013220
17.997213,0.031810,-0.039440,-0.037486
18.007253,0.007338,-0.028722,-0.028957
18.017263,-0.002461,-0.093743,-0.048520
18.027303,0.037236,0.005477,-0.054350
18.037344,0.025416,-0.037268,-0.040698
18.057394,0.028622,-0.021148,-0.064114
18.067404,0.028709,0.001197,-0.046916
18.077444,0.023224,-0.046766,-0.063182
18.087454,-0.003427,-0.047738,-0.065396
18.097494,-0.001171,-0.008282,-0.054521
18.107504,0.047866,0.002299,-0.067154
18.127584,0.008374,-0.011395,-0.080147
18.127584,0.008374,-0.011395,-0.080147
18.137594,0.041416,0.001419,-0.102427
18.147634,-0.017229,-0.022007,-0.077063
18.157644,-0.005422,0.007852,-0.075821
18.167684,0.002972,-0.012223,-0.127167
18.177694,-0.043874,-0.010072,-0.098445
18.207784,-0.014895,0.024742,-0.027698
18.207784,-0.014895,0.024742,-0.027698
18.217825,-0.038305,0.024697,-0.002125
18.227864,-0.024482,0.004291,0.012771
18.237905,-0.109700,0.037815,-0.017216
18.247915,-0.074606,-0.005143,0.009383
18.257955,0.039541,0.058780,-0.035932
18.267995,-0.052153,0.040877,-0.026656
18.278005,-0.011797,-0.014812,-0.021467
18.288045,-0.067219,0.007992,-0.063173
18.298055,-0.031914,0.017150,0.008539
18.308095,-0.017026,0.020437,-0.019178
18.318105,-0.002152,-0.006391,-0.002173
18.338186,0.028820,0.019160,-0.006239
18.348195,-0.023534,-0.025503,-0.010868
18.358236,-0.011778,-0.013794,-0.010780
18.368245,-0.011718,0.002174,-0.000022
18.378286,-0.018202,-0.024453,-0.010848
18.388295,-0.003235,-0.007409,-0.011794
18.408376,0.017999,-0.038459,-0.009746
18.418386,0.008496,-0.011780,0.001036
18.428426,0.023434,0.001042,-0.010612
18.438436,0.009546,-0.019274,0.004208
18.448476,0.151356,0.010238,-0.010215
18.458486,-0.197454,-0.087876,-0.026599
18.478566,0.072451,-0.008779,0.000159
18.488576,-0.011775,-0.019190,0.000945
18.498616,-0.072561,-0.036115,0.008174
18.508626,0.034000,-0.032093,-0.011808
18.518666,0.011601,-0.040584,-0.007637
18.528676,-0.024828,-0.014006,-0.182799
18.548757,-0.094379,0.197004,-0.040989
18.548757,-0.094379,0.197004,-0.040989
18.558767,-0.123341,-0.278301,-0.008067
18.568807,0.124906,0.081881,-0.011018
18.578817,-0.044850,-0.024356,-0.013058
18.588857,0.014817,-0.037421,-0.001204
18.598867,-0.014006,-0.049029,-0.010953
18.618947,0.070427,0.008123,0.040825
18.628957,-0.050267,-0.060684,-0.005767
18.638997,0.045821,-0.004431,0.002242
18.649007,-0.043789,-0.031886,-0.002408
18.659047,0.004226,0.003337,-0.030951
18.669057,-0.002102,0.004223,0.011765
18.679097,-0.013984,-0.040481,-0.011980
18.689138,0.005181,-0.048023,-0.010895
18.699147,0.014980,0.019154,0.004405
18.709188,-0.003264,-0.014860,-0.017171
18.719197,-0.017124,-0.027726,0.003026
18.729238,0.027682,-0.005384,-0.009563
18.739248,0.007424,-0.011756,-0.003240
18.759328,0.012685,-0.036336,-0.003341
18.769338,0.029854,0.010638,-0.011618
18.779378,-0.002185,-0.021367,0.003098
18.789388,-0.000137,-0.041578,-0.015152
18.799428,0.005296,-0.014994,0.005285
18.809438,0.008479,-0.008495,-0.016040
18.819478,-0.006518,-0.045910,0.001901
18.829519,0.004265,0.004288,-0.006377
18.839528,-0.008663,-0.041551,-0.015175
18.849569,-0.020339,-0.034123,0.002987
18.859578,0.004170,-0.023417,-0.019327
18.869619,-0.002198,-0.023482,-0.001185
18.879628,-0.013940,-0.025540,-0.009773
18.899709,-0.002195,-0.028878,0.010539
18.909719,0.015935,-0.009582,-0.017093
18.919759,-0.002245,-0.044876,0.006191
18.929769,0.007398,-0.023524,0.000977
18.939809,0.022370,-0.004344,0.000041
18.949819,0.005252,-0.029934,0.003078
18.969899,0.015937,-0.024670,0.011678
18.979909,0.007389,-0.028884,0.005225
18.989949,0.022348,-0.010737,-0.003194
18.999959,0.018094,-0.016138,0.012792
19.009999,0.013802,-0.023575,0.007404
19.020009,0.008477,-0.024646,0.011657
19.040090,0.000998,-0.028873,0.007344
19.050100,0.010565,-0.043906,0.017981
19.060140,0.013871,-0.000096,0.010720
19.070150,0.022466,0.022283,0.015122
19.080190,0.007447,-0.017217,0.022372
19.090200,-0.006519,-0.054524,0.016815
19.100240,0.016019,-0.000153,0.021408
19.110280,0.012795,-0.009754,0.021353
19.120290,-0.006456,-0.036410,0.025447
19.130330,0.010657,-0.016190,0.028795
19.140340,0.010629,-0.023640,0.023418
19.150380,0.005362,-0.005509,0.032035
19.160390,0.006374,-0.024730,0.030879
19.180471,-0.001061,-0.014016,0.028773
19.190480,0.001090,-0.007621,0.029877
19.200521,-0.021435,-0.066340,0.041287
19.210530,-0.005278,-0.000145,0.034168
19.210530,-0.005278,-0.000145,0.034168
19.230601,-0.029909,-0.046011,0.039224
19.250681,-0.014959,-0.040766,0.048904
19.260691,-0.012810,-0.032209,0.044677
19.260691,-0.012810,-0.032209,0.044677
19.280741,-0.004251,-0.022645,0.049019
19.290781,-0.012811,-0.035438,0.050003
19.300791,0.007499,-0.014150,0.051228
19.320872,-0.029894,-0.050369,0.057363
19.330881,0.002186,-0.014183,0.061895
19.340922,0.004332,-0.012080,0.067252
19.350931,0.004341,-0.005647,0.061942
19.350931,0.004341,-0.005647,0.061942
19.360972,-0.023477,-0.048304,0.068072
19.370981,0.011814,-0.002478,0.064114
19.391062,-0.029835,-0.040859,0.078772
19.391062,-0.029835,-0.040859,0.078772
19.401072,-0.003123,-0.012076,0.071505
19.411112,-0.012696,-0.009949,0.080034
19.421122,-0.036236,-0.042974,0.078744
19.431162,-0.022364,-0.038762,0.082007
19.441172,-0.021260,-0.025961,0.084207
19.471262,-0.010584,-0.026051,0.095987
19.471262,-0.010584,-0.026051,0.095987
19.481302,-0.019066,-0.019702,0.114153
19.491312,-0.020187,-0.035682,0.106597
19.501352,-0.007323,-0.012259,0.113152
19.511362,-0.024416,-0.031467,0.121560
19.531443,-0.025442,-0.024049,0.134411
19.531443,-0.025442,-0.024049,0.134411
19.541453,-0.005215,-0.027273,0.124838
19.551493,-0.003003,-0.004914,0.137768
19.561503,-0.029715,-0.031546,0.141841
19.571543,-0.022248,-0.025127,0.134415
19.581553,-0.006164,0.004677,0.144214
19.611643,-0.038192,-0.017671,0.149361
19.611643,-0.038192,-0.017671,0.149361
19.621683,-0.039307,-0.031515,0.141815
19.641733,-0.042422,-0.002680,0.144079
19.641733,-0.042422,-0.002680,0.144079
19.651743,-0.059559,-0.036829,0.150279
19.681833,-0.064858,-0.029367,0.156709
19.681833,-0.064858,-0.029367,0.156709
19.691874,-0.048811,-0.005909,0.153660
19.701883,-0.047732,-0.007031,0.164340
19.711924,-0.058396,-0.004825,0.156843
19.721934,-0.058416,-0.013379,0.158939
19.742014,-0.071180,-0.006955,0.164275
19.752024,-0.048799,-0.004871,0.160074
19.762064,-0.064839,-0.027271,0.165265
19.772074,-0.070162,-0.026196,0.167392
19.782114,-0.046619,0.005740,0.172949
19.792124,-0.066943,-0.018736,0.168504
19.822214,-0.069105,-0.029403,0.167379
19.822214,-0.069105,-0.029403,0.167379
19.832255,-0.072341,-0.046505,0.172631
19.842264,-0.053020,0.005781,0.168659
19.852305,-0.062646,-0.010237,0.174965
19.862314,-0.088313,-0.038963,0.169418
19.892405,-0.077634,-0.033678,0.173745
19.892405,-0.077634,-0.033678,0.173745
19.902445,-0.074414,-0.026218,0.174857
19.912455,-0.058354,0.005814,0.165439
19.922495,-0.066939,-0.019824,0.172772
19.932505,-0.087187,-0.020842,0.175916
19.952585,-0.044468,0.012136,0.174053
19.962595,-0.092528,-0.018633,0.164161
19.972635,-0.073297,-0.005915,0.171752
19.982645,-0.076470,0.004789,0.168589
19.992685,-0.087177,-0.011180,0.165279
20.002695,-0.082883,-0.001597,0.168541
20.032786,-0.083951,-0.002662,0.168533
20.032786,-0.083951,-0.002662,0.168533
20.042826,-0.076473,0.002643,0.170715
20.052836,-0.086131,-0.021893,0.171641
20.062876,-0.074324,0.010122,0.168620
20.072886,-0.078654,-0.016582,0.172755
20.102976,-0.080794,-0.019779,0.172734
20.102976,-0.080794,-0.019779,0.172734
20.113016,-0.071215,-0.025155,0.173803
20.123026,-0.073308,-0.013421,0.178126
20.133066,-0.065881,-0.026266,0.179154
20.143076,-0.076563,-0.034774,0.179084
20.163157,-0.058408,-0.024174,0.183457
20.173166,-0.053132,-0.045570,0.187643
20.183207,-0.057399,-0.047697,0.188689
20.193217,-0.036029,-0.029627,0.192039
20.203257,-0.033912,-0.040359,0.201608
20.213267,-0.024286,-0.029726,0.204889
20.233383,-0.013669,-0.051175,0.216567
20.243393,0.000270,-0.021323,0.217815
20.253433,-0.004036,-0.039484,0.221990
20.263443,-0.016842,-0.045855,0.222993
20.273483,0.003488,-0.019243,0.227448
20.283493,-0.022205,-0.061887,0.229312
20.303574,-0.006100,-0.024612,0.240215
20.303574,-0.006100,-0.024612,0.240215
20.313583,-0.008244,-0.031028,0.243383
20.323624,-0.017901,-0.053413,0.241114
20.333633,-0.016790,-0.040632,0.247587
20.343674,-0.007169,-0.029984,0.247664
20.353683,-0.023166,-0.039594,0.258256
20.373764,-0.011431,-0.034282,0.256177
20.383774,-0.024233,-0.043897,0.265711
20.393814,-0.010341,-0.028976,0.262615
20.403824,-0.024199,-0.031077,0.264703
20.413864,-0.028491,-0.043899,0.268903
20.423874,-0.033828,-0.049241,0.273136
20.443954,-0.038029,-0.028957,0.277493
20.443954,-0.038029,-0.028957,0.277493
20.453964,-0.054048,-0.043886,0.283788
20.464004,-0.067932,-0.054521,0.283699
20.474014,-0.065759,-0.042811,0.290170
20.484055,-0.092433,-0.054482,0.292177
20.494064,-0.082791,-0.036358,0.292290
20.514145,-0.116957,-0.062986,0.300615
20.514145,-0.116957,-0.062986,0.300615
20.524155,-0.097720,-0.043826,0.300759
20.534195,-0.082743,-0.036510,0.324335
20.544205,-0.091258,-0.025747,0.312613
20.554245,-0.109430,-0.049218,0.319929
20.564255,-0.101940,-0.037485,0.317869
20.584335,-0.102983,-0.039709,0.337083
20.594345,-0.111539,-0.050360,0.337009
20.604385,-0.115796,-0.052518,0.344464
20.614395,-0.101878,-0.031219,0.347808
20.624435,-0.108304,-0.046180,0.354129
20.634445,-0.112589,-0.060100,0.364733
20.654526,-0.098660,-0.035602,0.369161
20.664535,-0.087953,-0.020711,0.374602
20.674576,-0.094402,-0.035601,0.365968
20.684586,-0.106130,-0.040933,0.372320
20.694626,-0.113529,-0.024946,0.384125
20.704636,-0.128502,-0.041969,0.380798
20.724716,-0.114564,-0.015346,0.387372
20.724716,-0.114564,-0.015346,0.387372
20.734726,-0.144462,-0.035540,0.387194
20.744766,-0.128443,-0.023844,0.387294
20.754776,-0.132634,0.002873,0.386340
20.764816,-0.115623,-0.012134,0.386316
20.774826,-0.125220,-0.017472,0.392674
20.794907,-0.120896,0.006018,0.390660
20.804916,-0.124067,0.016718,0.388566
20.814957,-0.126255,-0.005717,0.391658
20.824966,-0.129462,-0.012139,0.396960
20.835007,-0.115551,0.012414,0.389637
20.845016,-0.108071,0.012329,0.402476
20.865097,-0.086797,0.002699,0.391807
20.875107,-0.091064,-0.002663,0.399248
20.885147,-0.084591,0.024000,0.402596
20.895157,-0.079252,0.028259,0.401563
20.905197,-0.103835,0.000552,0.405637
20.915207,-0.099639,-0.017561,0.393812
20.935287,-0.126280,-0.015333,0.392681
20.935287,-0.126280,-0.015333,0.392681
20.945297,-0.124183,-0.023848,0.385169
20.955337,-0.130557,-0.023893,0.399038
20.965347,-0.142336,-0.037682,0.387190
20.975388,-0.140177,-0.032390,0.395767
20.985397,-0.136982,-0.024854,0.380856
21.005447,-0.133837,-0.045165,0.382905
21.015488,-0.140258,-0.055834,0.384973
21.025528,-0.121051,-0.048426,0.386130
21.035538,-0.117862,-0.052718,0.388255
21.045578,-0.094387,-0.044266,0.391564
21.055588,-0.094386,-0.048578,0.400089
21.075638,-0.073022,-0.034795,0.406623
21.085678,-0.068793,-0.043317,0.399117
21.095718,-0.070961,-0.058276,0.402245
21.105728,-0.051666,-0.020986,0.407815
21.115768,-0.085863,-0.053981,0.407565
21.125778,-0.057042,-0.039134,0.409851
21.145828,-0.071967,-0.044460,0.417262
21.145828,-0.071967,-0.044460,0.417262
21.155868,-0.062360,-0.036996,0.413051
21.165909,-0.077259,-0.032711,0.420508
21.175919,-0.076210,-0.040200,0.422612
21.185959,-0.067673,-0.037029,0.423719
21.195969,-0.075092,-0.025288,0.430163
21.216019,-0.067666,-0.040283,0.434385
21.226081,-0.072982,-0.033843,0.431196
21.236121,-0.082621,-0.053055,0.435352
21.246131,-0.061231,-0.029660,0.441931
21.256171,-0.056979,-0.033946,0.441922
21.266181,-0.071937,-0.048863,0.445015
21.286231,-0.065525,-0.045706,0.450389
21.296271,-0.086864,-0.056336,0.454552
21.306312,-0.077271,-0.055294,0.453516
21.316321,-0.076217,-0.062798,0.458824
21.326362,-0.071917,-0.051080,0.462096
21.336371,-0.054839,-0.050139,0.477103
21.366462,-0.063366,-0.058725,0.491993
21.366462,-0.063366,-0.058725,0.491993
21.376502,-0.095384,-0.076796,0.496092
21.386512,-0.100503,-0.061286,0.607246
21.396552,-0.097294,-0.067795,0.626452
21.406562,-0.076851,-0.041542,0.706748
21.426612,-0.114600,-0.056165,0.437385
21.436652,-0.065498,-0.071645,0.515427
21.446692,-0.127312,-0.069298,0.513131
21.456702,-0.100678,-0.076890,0.519578
21.466743,-0.099593,-0.075876,0.530268
21.476752,-0.121959,-0.066157,0.522775
21.506843,-0.133668,-0.070477,0.540881
21.506843,-0.133668,-0.070477,0.540881
21.516883,-0.119817,-0.072662,0.541978
21.526893,-0.124090,-0.075847,0.540882
21.536933,-0.146468,-0.080097,0.551483
21.546943,-0.136874,-0.074748,0.542989
21.566993,-0.150706,-0.072623,0.554711
21.566993,-0.150706,-0.072623,0.554711
21.577033,-0.129349,-0.063126,0.564429
21.587073,-0.129357,-0.064179,0.561219
21.597083,-0.125085,-0.065296,0.568703
21.607123,-0.133590,-0.062105,0.577240
21.617133,-0.108023,-0.065382,0.575159
21.637183,-0.111217,-0.067538,0.581549
21.637183,-0.111217,-0.067538,0.581549
21.647223,-0.105866,-0.065470,0.592256
21.657264,-0.132498,-0.065424,0.600728
21.667274,-0.121869,-0.070752,0.591119
21.677314,-0.113322,-0.070846,0.605029
21.687324,-0.142106,-0.071805,0.601740
21.707374,-0.117615,-0.083662,0.608161
21.717414,-0.146381,-0.082526,0.613428
21.727454,-0.147454,-0.086810,0.616609
21.737464,-0.138930,-0.083598,0.609170
21.747504,-0.133560,-0.079435,0.628433
21.757514,-0.148543,-0.093194,0.612303
21.777564,-0.144231,-0.079360,0.619858
21.787604,-0.128237,-0.082666,0.630569
21.797645,-0.125007,-0.073085,0.634896
21.807654,-0.120765,-0.078419,0.630609
21.817695,-0.144196,-0.074086,0.633770
21.827704,-0.125014,-0.074138,0.631686
21.847754,-0.123930,-0.069890,0.635982
21.857795,-0.149511,-0.069802,0.634844
21.867835,-0.128211,-0.075206,0.633809
21.877845,-0.121768,-0.060301,0.639238
21.887885,-0.144174,-0.063381,0.628479
21.897895,-0.138856,-0.069826,0.632736
21.917945,-0.155923,-0.071882,0.627338
21.927985,-0.164451,-0.066464,0.616658
21.938025,-0.178316,-0.071774,0.619800
21.948035,-0.148465,-0.066511,0.615634
21.958076,-0.175116,-0.063175,0.605962
21.968085,-0.174063,-0.070679,0.611271
21.988135,-0.175131,-0.067436,0.603806
21.998176,-0.164466,-0.067491,0.608108
22.008216,-0.150604,-0.062171,0.602830
22.018226,-0.161258,-0.065381,0.611331
22.028266,-0.136757,-0.062191,0.597527
22.038276,-0.136735,-0.059028,0.606088
22.058326,-0.139913,-0.049386,0.601852
22.068366,-0.148428,-0.051549,0.613569
22.078406,-0.138875,-0.060073,0.602873
22.088416,-0.129237,-0.044091,0.604043
22.098456,-0.152697,-0.051515,0.609284
22.108466,-0.154857,-0.057881,0.601771
22.128516,-0.156975,-0.056841,0.609247
22.138556,-0.131408,-0.060118,0.607166
22.148597,-0.139922,-0.057975,0.611425
22.158607,-0.152729,-0.064341,0.611360
22.168647,-0.136746,-0.062226,0.605005
22.178657,-0.154852,-0.061130,0.611369
22.198707,-0.146338,-0.062195,0.604978
22.208747,-0.175102,-0.061064,0.611313
22.218787,-0.160210,-0.065329,0.599584
22.228814,-0.155932,-0.063237,0.606015
22.238854,-0.182570,-0.056707,0.598495
22.248864,-0.177248,-0.059934,0.599563
22.268914,-0.159143,-0.059952,0.591067
22.278954,-0.156985,-0.054655,0.598575
22.288995,-0.158041,-0.049296,0.595393
22.299004,-0.150621,-0.058886,0.585754
22.309045,-0.151644,-0.051478,0.600741
22.319054,-0.141021,-0.051402,0.577271
22.339104,-0.184686,-0.042747,0.583600
22.349145,-0.149582,-0.055575,0.562272
22.359185,-0.150636,-0.062070,0.581466
22.369195,-0.173037,-0.051166,0.549410
22.379235,-0.155971,-0.051262,0.558002
22.389245,-0.178376,-0.059733,0.557900
22.409295,-0.167726,-0.059742,0.552588
22.419335,-0.169888,-0.056410,0.526961
22.429375,-0.153903,-0.060764,0.533394
22.439385,-0.164570,-0.057470,0.521630
22.449426,-0.189110,-0.063768,0.515123
22.459435,-0.153943,-0.064945,0.514146
22.479485,-0.177425,-0.067991,0.496975
22.489526,-0.151840,-0.064860,0.494925
22.499566,-0.172107,-0.064744,0.484187
22.509576,-0.162549,-0.074361,0.478827
22.519616,-0.151849,-0.061601,0.483190
22.529626,-0.156147,-0.064710,0.466072
22.549676,-0.148700,-0.067923,0.462872
22.559716,-0.132736,-0.070055,0.451156
22.569756,-0.133784,-0.064722,0.453315
22.579766,-0.144455,-0.063569,0.442609
22.589806,-0.127404,-0.063619,0.441587
22.599816,-0.131678,-0.063570,0.434098
22.619866,-0.124222,-0.061428,0.427720
22.629906,-0.130643,-0.061321,0.409543
22.639947,-0.116785,-0.061376,0.411717
22.649957,-0.129567,-0.053819,0.403172
22.659997,-0.130641,-0.052712,0.395697
22.670007,-0.117870,-0.061312,0.398896
22.680047,-0.110410,-0.053795,0.385065
22.690057,-0.119980,-0.046293,0.386143
22.700097,-0.114663,-0.049504,0.384006
22.710137,-0.093364,-0.049518,0.372314
22.720147,-0.094406,-0.043127,0.376614
22.730187,-0.101881,-0.043057,0.366980
22.740197,-0.096569,-0.046253,0.361639
22.750237,-0.083779,-0.047373,0.363805
22.750237,-0.083779,-0.047373,0.363805
22.770287,-0.077402,-0.046260,0.349941
22.780328,-0.095520,-0.047279,0.352023
22.790337,-0.088101,-0.054713,0.338121
22.800378,-0.082739,-0.045139,0.342454
22.810387,-0.088114,-0.055751,0.331707
22.820428,-0.088132,-0.060002,0.327414
22.830438,-0.094497,-0.050380,0.329578
22.840478,-0.093464,-0.057819,0.321000
22.850518,-0.065742,-0.054715,0.323228
22.850518,-0.065742,-0.054715,0.323228
22.870568,-0.073236,-0.059970,0.310364
22.880578,-0.077494,-0.055664,0.306100
22.900628,-0.067920,-0.061024,0.303964
22.900628,-0.067920,-0.061024,0.303964
22.920708,-0.041269,-0.052512,0.292328
22.920708,-0.041269,-0.052512,0.292328
22.930718,-0.066845,-0.050283,0.290131
22.940759,-0.070053,-0.052393,0.286908
22.960809,-0.049841,-0.056650,0.269852
22.970818,-0.087125,-0.052277,0.274043
22.970818,-0.087125,-0.052277,0.274043
22.980859,-0.075428,-0.055463,0.262310
22.990899,-0.071183,-0.060807,0.260160
23.000909,-0.095706,-0.063926,0.259009
23.010949,-0.075467,-0.059649,0.244130
23.020959,-0.086098,-0.050003,0.244146
23.041009,-0.071220,-0.057456,0.229197
23.061089,-0.080819,-0.054171,0.218504
23.061089,-0.080819,-0.054171,0.218504
23.071099,-0.076539,-0.046699,0.216415
23.081139,-0.079730,-0.045631,0.218548
23.091149,-0.053117,-0.052079,0.208977
23.101189,-0.075481,-0.042370,0.203620
23.111199,-0.078669,-0.040234,0.205757
23.141290,-0.057366,-0.038106,0.193008
23.141290,-0.057366,-0.038106,0.193008
23.151330,-0.056310,-0.039158,0.188733
23.161340,-0.057345,-0.028480,0.189849
23.171380,-0.047771,-0.031684,0.183451
23.181390,-0.045641,-0.031686,0.182388
23.211480,-0.052039,-0.029499,0.175972
23.211480,-0.052039,-0.029499,0.175972
23.221546,-0.049900,-0.030610,0.183450
23.231556,-0.047782,-0.027342,0.168516
23.241596,-0.061615,-0.024134,0.177039
23.251606,-0.047767,-0.020924,0.166410
23.281696,-0.061615,-0.018748,0.167451
23.281696,-0.061615,-0.018748,0.167451
23.291737,-0.055227,-0.019827,0.165327
23.301746,-0.062685,-0.021964,0.170637
23.311787,-0.057386,-0.024041,0.154619
23.321797,-0.043475,-0.008103,0.162210
23.341877,-0.053098,-0.013361,0.151476
23.351887,-0.066947,-0.013336,0.155711
23.361927,-0.059524,-0.021858,0.146077
23.371937,-0.064804,-0.007993,0.153606
23.381977,-0.072302,-0.016467,0.143931
23.391987,-0.052045,-0.012245,0.140802
23.422077,-0.048835,-0.001526,0.130180
23.422077,-0.048835,-0.001526,0.130180
23.432118,-0.074419,-0.000350,0.124774
23.442127,-0.048862,-0.015444,0.137591
23.452168,-0.060557,0.003892,0.121627
23.462177,-0.058463,-0.004613,0.111979
23.482258,-0.061692,-0.010964,0.102326
23.492268,-0.060583,-0.003563,0.117319
23.502308,-0.055307,-0.017418,0.107654
23.512318,-0.074430,0.005071,0.107708
23.522358,-0.034981,0.013517,0.101448
23.532368,-0.058494,-0.008824,0.099140
23.562458,-0.052099,-0.008844,0.099158
23.562458,-0.052099,-0.008844,0.099158
23.572498,-0.059526,0.006156,0.093867
23.582508,-0.028667,-0.002407,0.076821
23.592548,-0.058473,-0.000270,0.097045
23.602558,-0.038208,0.014696,0.080080
23.622639,-0.025456,-0.000307,0.082181
23.632649,-0.041448,-0.004547,0.086389
23.642689,-0.046711,0.016804,0.091817
23.652699,-0.010564,-0.012112,0.084302
23.662739,-0.041409,0.006102,0.092849
23.672749,-0.021180,0.006102,0.079018
23.702839,-0.019039,0.006065,0.085433
23.702839,-0.019039,0.006065,0.085433
23.712879,-0.038245,-0.008884,0.098128
23.722889,-0.018020,-0.003484,0.071504
23.732929,-0.014789,-0.004679,0.096076
23.742939,-0.031873,-0.007756,0.081059
23.752979,-0.032989,-0.029137,0.086296
23.763020,-0.023282,0.013554,0.085457
23.773029,-0.009452,0.007127,0.080124
23.783070,-0.026560,-0.014186,0.082112
23.793079,-0.038341,-0.034434,0.080915
23.803120,-0.019108,-0.013107,0.074660
23.813130,-0.019015,0.018916,0.078017
23.833210,-0.023443,-0.037640,0.071327
23.833210,-0.023443,-0.037640,0.071327
23.843220,-0.026531,-0.001351,0.077900
23.853260,-0.001973,0.017818,0.072717
23.863270,-0.018026,-0.005620,0.071494
23.873310,-0.027708,-0.041929,0.077705
23.883320,0.003333,0.012486,0.067366
23.913410,-0.014847,-0.008804,0.065078
23.913410,-0.014847,-0.008804,0.065078
23.923451,0.010815,0.017781,0.071684
23.933460,-0.015964,-0.029106,0.068184
23.943501,-0.021274,-0.022686,0.069268
23.953510,-0.020156,-0.007774,0.076819
23.973591,-0.021217,-0.007786,0.080021
23.973591,-0.021217,-0.007786,0.080021
23.983601,-0.034014,-0.007719,0.074644
23.993641,-0.010632,-0.028055,0.068204
24.003651,-0.021240,-0.021714,0.089568
24.013691,-0.027639,-0.010908,0.067169
24.023701,-0.018030,-0.010995,0.078946
24.053791,0.005432,-0.004653,0.076904
24.053791,0.005432,-0.004653,0.076904
24.063831,-0.016953,-0.004571,0.074706
24.073841,-0.035180,-0.050488,0.086189
24.083881,-0.013815,-0.025934,0.073546
24.093891,-0.014866,-0.015206,0.063980
24.113972,-0.038359,-0.033300,0.067034
24.113972,-0.038359,-0.033300,0.067034
24.123982,-0.038352,-0.033320,0.071307
24.134022,-0.001983,0.018926,0.064177
24.144032,-0.026687,-0.049332,0.061649
24.154072,-0.058548,-0.015115,0.074542
24.164082,-0.010659,-0.027969,0.050044
24.194172,-0.015926,-0.013067,0.063987
24.194172,-0.015926,-0.013067,0.063987
24.204212,-0.034114,-0.035409,0.058490
24.214222,-0.026679,-0.037508,0.045682
24.224288,-0.014792,0.013643,0.060912
24.234298,-0.023409,-0.011894,0.046880
24.254379,-0.020194,-0.006575,0.049051
24.264388,-0.019184,-0.026869,0.048958
24.274429,-0.014863,-0.008753,0.054396
24.284438,-0.024425,0.003030,0.053357
24.294479,-0.023459,-0.032205,0.051057
24.304489,-0.034025,-0.001220,0.055447
24.334579,-0.024464,-0.004384,0.040504
24.334579,-0.024464,-0.004384,0.040504
24.344619,-0.019136,-0.008709,0.047976
24.354629,-0.033007,-0.013998,0.046844
24.364669,-0.022323,-0.003344,0.044787
24.374679,-0.006277,0.015807,0.049195
24.394760,-0.046908,-0.031045,0.047793
24.394760,-0.046908,-0.031045,0.047793
24.404769,-0.012645,0.029746,0.041766
24.414810,-0.009528,-0.001249,0.044833
24.424819,-0.026541,0.007299,0.055508
24.434860,-0.018027,0.010541,0.041660
24.444869,-0.026579,-0.003355,0.050117
24.474960,-0.029688,0.023308,0.059848
24.474960,-0.029688,0.023308,0.059848
24.485000,-0.024511,-0.023627,0.044685
24.495010,-0.012708,0.010554,0.035266
24.505050,-0.031951,-0.013971,0.040438
24.515060,-0.023466,-0.017102,0.019082
24.535140,-0.014864,0.003100,0.032020
24.535140,-0.014864,0.003100,0.032020
24.545150,-0.029909,-0.041704,0.031766
24.555190,-0.028685,0.006268,0.049088
24.565200,-0.000988,0.013760,0.026768
24.575240,-0.024411,0.016989,0.037400
24.585250,-0.040429,0.009601,0.029844
24.615341,-0.026601,0.004257,0.021311
24.615341,-0.026601,0.004257,0.021311
24.625381,-0.040456,-0.000010,0.029798
24.635391,-0.049045,-0.021326,0.026469
24.645431,-0.038441,-0.035193,0.015750
24.655441,-0.038364,-0.011739,0.024407
24.675521,-0.040418,0.016029,0.025601
24.685531,-0.026683,-0.025645,0.021169
24.695571,-0.051254,-0.045851,0.019937
24.705581,-0.042682,-0.028787,0.018974
24.715621,-0.011706,-0.006481,0.023438
24.725631,-0.022298,0.011658,0.034176
24.735671,-0.023506,-0.036365,0.027537
24.745712,-0.040548,-0.030955,0.024310
24.755721,-0.014952,-0.018167,0.012691
24.765762,-0.019180,-0.018264,0.036180
24.775771,-0.004198,0.013811,0.018213
24.785812,-0.052277,-0.039521,0.037056
24.795822,-0.036327,-0.041607,0.015726
24.805862,-0.021302,-0.005361,0.019144
24.815902,-0.029916,-0.044913,0.032819
24.825912,-0.027771,-0.032034,0.017931
24.835952,-0.036068,0.045902,0.028959
24.845962,-0.023560,-0.050197,0.016789
24.856002,-0.043872,-0.074709,0.019821
24.866012,0.001134,0.014862,0.018233
24.876052,-0.007315,0.037265,0.028998
24.886093,-0.017121,-0.035277,0.019014
24.896102,-0.065080,-0.045897,0.039127
24.906143,-0.011723,0.004345,-0.007489
24.916152,-0.026652,-0.021434,0.034008
24.926193,-0.019161,0.003221,0.009576
24.936202,-0.042639,-0.014919,0.022244
24.946243,-0.051141,-0.005275,0.021198
24.956283,-0.043816,-0.044726,0.002872
24.966293,-0.052214,-0.002017,0.010528
24.976333,-0.014921,-0.006415,0.011679
24.986343,-0.028766,-0.002093,0.010593
24.996383,-0.043677,0.002232,0.009504
25.006393,-0.044808,-0.024488,0.014715
25.016433,-0.034122,-0.004146,-0.003319
25.026473,-0.036232,-0.009595,0.021219
25.036483,-0.004288,-0.013910,0.008468
25.046523,-0.025546,0.002133,0.018099
25.056533,-0.036251,-0.015997,0.020120
25.066573,-0.001085,-0.007477,0.001030
25.076583,-0.026614,-0.002166,0.024485
25.086624,-0.006504,-0.042722,0.005121
25.096664,-0.011684,0.006375,0.014953
25.106674,-0.000041,-0.022492,0.013780
25.116714,-0.025587,-0.012818,0.018028
25.126724,-0.016030,-0.024586,0.015863
25.136764,-0.034200,-0.043755,0.016790
25.146774,-0.051274,-0.043634,0.002857
25.156814,-0.022360,0.001080,0.012762
25.176864,-0.018217,-0.039485,0.006172
25.186904,-0.043736,-0.032053,0.032842
25.196914,-0.023539,-0.030873,-0.004484
25.206954,-0.032052,-0.038428,0.017889
25.216964,-0.018092,0.009670,-0.000004
25.237097,-0.038391,-0.025657,0.031819
25.247106,0.001004,-0.014889,-0.013954
25.257147,-0.037364,-0.043851,0.039213
25.267156,-0.020277,-0.008468,-0.002233
25.277197,-0.010740,-0.037409,0.013680
25.287207,-0.019217,-0.021377,0.016937
25.307287,0.006479,0.012637,0.033192
25.317297,-0.001178,-0.041651,0.000868
25.327337,-0.040643,-0.060816,0.015623
25.337347,-0.024470,0.005328,0.019185
25.347387,0.008372,-0.055555,-0.001308
25.357397,-0.029818,-0.002135,0.020204
25.377478,-0.020314,-0.037433,0.025404
25.387487,-0.019240,-0.027770,0.013702
25.397528,-0.012798,-0.011782,0.015932
25.407537,-0.039525,-0.039441,0.011455
25.417578,-0.017121,-0.032043,0.012620
25.427587,0.001061,-0.006452,0.008518
25.437628,-0.006459,-0.028859,0.009460
25.447668,-0.004259,-0.010772,0.022370
25.457678,0.009586,-0.007552,0.009605
25.467718,-0.030999,-0.050239,0.030655
25.477728,-0.020250,-0.007475,0.013795
25.487768,0.010637,-0.011817,0.007451
25.497778,-0.005343,-0.016098,0.020205
25.507818,0.007433,-0.016094,0.010627
25.517858,0.015924,-0.031093,0.014852
25.527868,-0.007469,-0.011799,0.015947
25.537908,0.002158,0.002063,0.013902
25.547918,-0.012818,-0.019257,0.015897
25.557958,-0.029912,-0.033075,0.013648
25.567968,-0.011844,-0.044825,0.001892
25.588049,0.014891,-0.013957,0.005316
25.588049,0.014891,-0.013957,0.005316
25.598059,0.005322,-0.010767,0.014919
25.608099,0.008527,-0.003262,0.006417
25.618109,-0.006493,-0.040601,0.008336
25.628149,-0.009553,0.009602,0.008565
25.638159,0.005339,-0.000048,0.006424
25.658239,-0.019343,-0.056528,-0.002457
25.658239,-0.019343,-0.056528,-0.002457
25.668249,-0.023468,-0.016019,0.015883
25.678289,0.014942,0.007427,0.000076
25.688299,0.006457,0.011630,0.020369
25.698339,-0.007567,-0.039494,0.000860
25.708349,-0.013972,-0.039443,-0.005566
25.728430,-0.013865,-0.007466,0.007404
25.738439,-0.033101,-0.030938,0.015785
25.748480,-0.008555,-0.007422,-0.005400
25.758489,-0.020308,-0.029912,0.015826
25.768530,-0.001055,-0.000032,0.007474
25.778540,0.017018,-0.013949,0.002117
25.798620,0.004226,-0.018209,0.008471
25.798620,0.004226,-0.018209,0.008471
25.808630,0.022365,-0.016178,0.018145
25.818670,-0.022320,0.014958,0.013896
25.828680,0.013761,-0.030985,-0.006518
25.838720,-0.018082,-0.011906,0.045827
25.848730,0.025478,-0.029924,-0.012890
25.868811,0.033013,-0.009719,0.000045
25.878820,0.003101,-0.041715,0.011562
25.888861,0.005322,-0.015075,0.022376
25.898870,0.040515,0.004130,0.002268
25.908911,-0.008485,0.002052,0.023487
25.918920,0.027643,-0.021418,-0.006434
25.949011,-0.004296,-0.022504,0.019110
25.959051,-0.004209,0.012768,0.012867
25.969061,0.003168,-0.008534,-0.004304
25.979101,-0.020367,-0.045885,0.006136
25.989111,0.001090,0.004228,0.008569
25.999151,-0.007628,-0.060848,-0.000309
26.009191,0.005454,0.037289,0.015146
26.019201,0.028718,-0.020374,-0.002153
26.029241,-0.019233,-0.023483,0.010518
26.039251,0.010703,0.017057,-0.000958
26.049292,-0.001096,-0.025753,0.026580
26.059301,-0.016066,-0.029860,0.001951
26.069342,-0.002138,-0.007514,0.009572
26.079382,0.006380,-0.009668,0.007449
26.089392,-0.003304,-0.041664,0.005135
26.099432,0.009575,-0.012902,0.011716
26.109442,-0.005366,-0.018178,0.008445
26.119482,0.015913,-0.025672,-0.002214
26.129492,0.013892,-0.000161,0.024607
26.149572,0.004114,-0.062019,0.013605
26.159582,0.002127,-0.007533,0.010652
26.169622,0.028766,-0.009755,0.010715
26.179632,-0.003338,-0.058791,0.013599
26.189672,0.005252,-0.036398,0.014797
26.199713,0.034052,-0.022563,0.005328
26.219763,0.020119,-0.050279,0.004091
26.219763,0.020119,-0.050279,0.004091
26.229789,-0.004286,-0.019305,0.020193
26.239830,0.014841,-0.031034,0.003099
26.249840,-0.003264,-0.035327,0.020120
26.259880,0.006321,-0.032104,0.009480
26.269919,0.006348,-0.023571,0.011656
26.279930,0.012780,-0.007552,0.007477
26.289970,0.006334,-0.025681,0.006305
26.299980,-0.010702,-0.023526,0.013746
26.310020,0.005237,-0.039581,0.010509
26.320030,-0.002155,-0.013922,0.009542
26.330070,-0.004328,-0.029944,0.011597
26.340110,-0.000099,-0.038466,0.004091
26.360161,0.005256,-0.028872,0.004151
26.370170,-0.017168,-0.051286,0.016801
26.380211,0.010701,0.012755,0.005431
26.390220,-0.005353,-0.011755,0.005271
26.400261,-0.003296,-0.038455,0.004082
26.410300,-0.003206,-0.024739,0.039398
26.430351,-0.007437,-0.004359,0.023460
26.440361,0.023393,-0.023601,0.006362
26.450401,0.003167,-0.020382,0.017004
26.460411,0.009502,-0.041756,0.015852
26.470451,0.011634,-0.037456,0.008401
26.480490,0.011656,-0.031064,0.011636
26.500541,0.002993,-0.079078,0.008180
26.510551,0.004132,-0.056690,0.015766
26.520591,0.002103,-0.018227,0.013806
26.530601,0.000904,-0.064125,0.009313
26.540642,0.004089,-0.070558,0.012496
26.540642,0.004089,-0.070558,0.012496
26.560692,0.022242,-0.056723,0.010475
26.580742,-0.003352,-0.060902,0.008248
26.580742,-0.003352,-0.060902,0.008248
26.600792,-0.011865,-0.056608,0.009313
26.610832,-0.012914,-0.051270,0.010404
26.620871,0.008444,-0.034237,0.007339
26.620871,0.008444,-0.034237,0.007339
26.630882,-0.013997,-0.059830,0.014633
26.660972,-0.020364,-0.051281,0.017861
26.660972,-0.020364,-0.051281,0.017861
26.670982,-0.013996,-0.057679,0.011439
26.681022,0.002047,-0.038518,0.013710
26.691063,-0.007552,-0.041696,0.014737
26.701072,0.005222,-0.045999,0.012615
26.731162,-0.013961,-0.049171,0.018957
26.731162,-0.013961,-0.049171,0.018957
26.741173,-0.008551,-0.016052,0.012719
26.751213,0.000925,-0.057727,0.011480
26.761253,0.003155,-0.027883,0.022309
26.771263,-0.001092,-0.018227,0.015934
26.801352,-0.021468,-0.061926,0.011398
26.801352,-0.021468,-0.061926,0.011398
26.811363,-0.012924,-0.056624,0.013583
26.821403,-0.017127,-0.034179,0.012610
26.831444,-0.004337,-0.028835,0.003056
26.841453,-0.035257,-0.040548,0.016802
26.871543,-0.039567,-0.059777,0.020972
26.871543,-0.039567,-0.059777,0.020972
26.881553,-0.015022,-0.026564,-0.018327
26.891594,-0.030993,-0.042718,0.021077
26.901634,-0.024624,-0.038351,-0.003454
26.911644,-0.007512,-0.019204,0.000957
26.931694,-0.006521,-0.044822,-0.002366
26.931694,-0.006521,-0.044822,-0.002366
26.941733,-0.001137,-0.035319,0.016921
26.951744,-0.005343,-0.013942,0.015942
26.961784,0.016968,-0.029947,-0.002231
26.971824,-0.006362,-0.008700,0.037329
26.981834,-0.007531,-0.025606,-0.000142
27.011923,0.000064,0.018109,0.009700
27.011923,0.000064,0.018109,0.009700
27.021934,0.000003,-0.011859,0.023445
27.031975,-0.015020,-0.037339,0.001918
27.042015,-0.016031,-0.029971,0.025451
27.052025,-0.009660,-0.028838,0.007314
27.072075,-0.009565,-0.001133,0.020264
27.072075,-0.009565,-0.001133,0.020264
27.082114,-0.032088,-0.040467,-0.002417
27.092125,-0.037401,-0.042657,0.012513
27.102165,-0.032046,-0.029828,0.006180
27.112205,-0.007606,-0.051221,-0.003468
27.122215,-0.034173,-0.037378,0.023229
27.142265,-0.015005,-0.034156,0.006206
27.152304,-0.017135,-0.036310,0.011531
27.162315,0.013680,-0.066277,0.003997
27.172355,-0.011775,-0.031038,0.022253
27.182396,0.024452,-0.022506,-0.000039
27.192405,-0.000157,-0.063058,0.010383
27.222495,0.005210,-0.049193,0.010464
27.222495,0.005210,-0.049193,0.010464
27.232521,-0.001190,-0.044844,-0.001284
27.242561,0.009480,-0.044920,0.007291
27.252601,-0.000091,-0.033106,-0.000157
27.262611,-0.016137,-0.053334,-0.002433
27.292701,-0.005507,-0.066204,0.001808
27.292701,-0.005507,-0.066204,0.001808
27.302711,-0.014023,-0.065134,0.007131
27.312751,0.022366,-0.001100,-0.008489
27.322792,-0.008642,-0.048080,0.010431
27.332801,-0.009830,-0.083237,-0.006830
27.352851,0.011631,-0.029905,-0.007587
27.352851,0.011631,-0.029905,-0.007587
27.362892,-0.023660,-0.082195,0.008091
27.372901,0.008491,-0.010687,-0.004300
27.382942,0.002027,-0.037379,-0.001239
27.392982,-0.016115,-0.051249,0.008259
27.402992,0.011600,-0.042735,-0.004443
27.433082,0.011636,-0.034232,0.004143
27.433082,0.011636,-0.034232,0.004143
27.443092,0.005259,-0.026726,0.002025
27.453132,0.008453,-0.024570,-0.004366
27.463172,0.015942,-0.020378,0.007425
27.473182,0.015927,-0.022483,0.001006
27.503272,-0.011786,-0.020232,-0.004401
27.503272,-0.011786,-0.020232,-0.004401
27.513282,-0.022440,-0.027749,0.011557
27.523323,-0.003296,-0.031992,-0.007638
27.533363,-0.010685,-0.013884,0.007382
27.543373,-0.016113,-0.044791,-0.002393
27.553413,-0.004308,-0.020312,0.007369
27.563423,-0.029924,-0.026576,-0.005549
27.573463,-0.011782,-0.021320,-0.000133
27.583473,-0.018190,-0.027722,0.003023
27.593513,-0.004320,-0.017043,-0.006502
27.603553,-0.017112,-0.024532,0.005178
27.613563,-0.007521,-0.022407,0.000941
27.623603,0.007416,-0.018194,0.003139
27.633613,-0.001092,-0.010686,0.002083
27.643653,-0.002225,-0.035245,0.001964
27.653663,0.022416,0.011669,0.001185
27.663703,0.012698,-0.035298,0.003073
27.673744,0.011695,-0.013952,0.006376
27.683753,0.019160,-0.009679,0.001075
27.703803,0.025502,-0.030000,0.003133
27.703803,0.025502,-0.030000,0.003133
27.713844,-0.004326,-0.029949,0.012665
27.723854,0.006333,-0.021369,-0.002220
27.733894,0.017016,-0.019329,0.010638
27.743934,-0.003241,-0.023550,0.013766
27.753944,0.025491,-0.032121,-0.000081
27.773994,0.011646,-0.028877,0.000964
27.784034,-0.003222,-0.014991,0.010602
27.794044,0.015931,-0.024650,0.007405
27.804084,0.016999,-0.022507,0.005282
27.814125,0.007445,-0.013978,0.014909
27.824134,0.017007,-0.014991,-0.003229
27.844184,0.018139,0.006339,0.002217
27.854225,0.004201,-0.026747,0.007363
27.864234,-0.006395,-0.004286,0.007440
27.874275,0.007421,-0.009595,-0.008571
27.884315,-0.006376,0.001038,0.010669
27.894325,0.002108,-0.008550,-0.000035
27.914375,-0.009590,-0.003208,0.007436
27.924415,0.003161,-0.008513,-0.008577
27.934425,-0.011686,0.008536,0.009622
27.944465,-0.021376,-0.020206,-0.003359
27.954505,-0.013834,0.003208,0.008523
27.964515,0.004267,-0.001102,0.004279
27.994605,-0.007458,-0.003215,0.007442
27.994605,-0.007458,-0.003215,0.007442
28.004615,-0.012773,-0.001087,0.012778
28.014656,0.018079,-0.013937,-0.001084
28.024696,-0.004307,-0.022468,0.011632
28.034706,-0.011729,0.000053,-0.003237
28.064796,0.006295,-0.037408,0.001977
28.064796,0.006295,-0.037408,0.001977
28.074806,0.008526,-0.009720,0.017069
28.084846,0.025573,-0.002219,0.000060
28.094886,0.022332,-0.025769,0.013827
28.104896,-0.003253,-0.021358,0.002026
28.124946,-0.004331,-0.029934,0.009460
28.134986,0.005256,-0.026716,-0.000112
28.144996,0.018042,-0.032132,0.007375
28.155036,0.003095,-0.039544,0.004094
28.165077,0.013754,-0.040657,0.006255
28.175086,0.008453,-0.033189,0.011617
28.195136,0.003121,-0.038547,0.019054
28.195136,0.003121,-0.038547,0.019054
28.205177,0.011619,-0.034176,-0.007607
28.215187,0.004144,-0.048111,0.008330
28.225227,0.010548,-0.044928,0.008362
28.235311,0.021193,-0.040615,-0.007611
28.245321,-0.002203,-0.032082,0.010524
28.265371,0.015906,-0.033188,0.006296
28.275411,0.012705,-0.032089,0.002020
28.285421,0.010570,-0.036380,0.007335
28.295461,0.012738,-0.022498,0.006338
28.305502,0.020198,-0.023601,0.008490
28.315511,0.012739,-0.021425,0.005275
28.335561,0.004209,-0.024617,0.008441
28.335561,0.004209,-0.024617,0.008441
28.345602,-0.006464,-0.024537,-0.001202
28.355611,0.005230,-0.040639,0.008368
28.365652,0.015897,-0.031007,-0.003307
28.375692,-0.033094,-0.025574,0.010470
28.385702,0.002031,-0.038467,0.003028
28.405752,-0.028862,-0.036262,0.009363
28.415792,0.000949,-0.044877,0.004063
28.425802,-0.014984,-0.029914,0.012636
28.435842,-0.006467,-0.028834,0.004119
28.445882,-0.024595,-0.030900,0.001922
28.455892,-0.014986,-0.029909,0.011567
28.475942,-0.021396,-0.026609,-0.004458
28.485982,-0.003193,-0.004312,0.010653
28.495992,0.004202,-0.023518,0.002037
28.506033,-0.011752,-0.014953,0.008442
28.516073,-0.016036,-0.019181,0.002001
28.526083,-0.008582,-0.022419,0.004143
28.546133,-0.013921,-0.024522,0.000914
28.556173,-0.022444,-0.030968,0.014746
28.566183,-0.013928,-0.027731,0.001967
28.576223,-0.014953,-0.018162,0.011623
28.586263,-0.025660,-0.034131,0.008313
28.596273,-0.020305,-0.023459,0.006242
28.616323,-0.026704,-0.026657,0.009414
28.616323,-0.026704,-0.026657,0.009414
28.626363,-0.004297,-0.023577,0.020173
28.636373,-0.003237,-0.021409,0.012708
28.646413,-0.022399,-0.019261,0.023348
28.656454,-0.003227,-0.021439,0.019118
28.666463,-0.004293,-0.022514,0.021246
28.686513,-0.016011,-0.019262,0.019092
28.696554,-0.018137,-0.017119,0.019097
28.706564,-0.023466,-0.017102,0.019082
28.716604,-0.022389,-0.014985,0.022300
28.726644,-0.012790,-0.010729,0.019142
28.736654,-0.019187,-0.009625,0.015925
28.756704,-0.021322,-0.012837,0.019108
28.766744,-0.012769,-0.004331,0.021308
28.776754,-0.021297,-0.004299,0.020217
28.786794,-0.038347,-0.003175,0.020175
28.796835,-0.014920,-0.009649,0.018073
28.806844,-0.022379,-0.010708,0.021252
28.826894,-0.018116,-0.010722,0.021263
28.836935,-0.033041,-0.014970,0.026543
28.846944,-0.043717,-0.018109,0.020090
28.856985,-0.043705,-0.017071,0.026504
28.867025,-0.043724,-0.024552,0.027537
28.877035,-0.030949,-0.027777,0.023284
28.897085,-0.061861,-0.033052,0.030651
28.907125,-0.049061,-0.029895,0.031769
28.917135,-0.033079,-0.033160,0.033935
28.927175,-0.049046,-0.025633,0.033926
28.937215,-0.054389,-0.030955,0.033886
28.947225,-0.041590,-0.027798,0.035005
28.967275,-0.037319,-0.029988,0.043552
28.977315,-0.023469,-0.028940,0.038254
28.987325,-0.042627,-0.025730,0.049966
28.997366,-0.043716,-0.028884,0.040335
29.007406,-0.045838,-0.027830,0.044607
29.017416,-0.046912,-0.029957,0.043525
29.037466,-0.057562,-0.027792,0.044574
29.047506,-0.052259,-0.030957,0.032824
29.057516,-0.052226,-0.024600,0.043536
29.067556,-0.059708,-0.029895,0.039217
29.077596,-0.051184,-0.029913,0.037104
29.087606,-0.052220,-0.023542,0.045677
29.107656,-0.053260,-0.018235,0.053177
29.117696,-0.038347,-0.017180,0.045746
29.127706,-0.040485,-0.022538,0.051056
29.137746,-0.043655,-0.016150,0.057486
29.147787,-0.026589,-0.006554,0.049033
29.157796,-0.028732,-0.017282,0.060727
29.177847,-0.031929,-0.015120,0.057524
29.187887,-0.034055,-0.017285,0.064985
29.197897,-0.026602,-0.014055,0.054339
29.207937,-0.034035,-0.014116,0.072478
29.217977,-0.036184,-0.015132,0.062853
29.228003,-0.028712,-0.014113,0.068220
29.248053,-0.028731,-0.016209,0.059664
29.258093,-0.034037,-0.017340,0.076735
29.268103,-0.030844,-0.015185,0.070345
29.278143,-0.023399,-0.020543,0.069272
29.288184,-0.043627,-0.016241,0.076714
29.298193,-0.043677,-0.025777,0.060646
29.318243,-0.037246,-0.016217,0.067118
29.318243,-0.037246,-0.016217,0.067118
29.328284,-0.038307,-0.017306,0.072451
29.338293,-0.041486,-0.014122,0.078866
29.348334,-0.027643,-0.014127,0.070359
29.358374,-0.031872,-0.006683,0.079996
29.368384,-0.032956,-0.008775,0.071438
29.388434,-0.036149,-0.012009,0.079959
29.398474,-0.021215,-0.002406,0.071500
29.408484,-0.043559,0.000780,0.090681
29.418524,-0.022284,-0.006699,0.076818
29.428564,-0.031867,-0.005620,0.081070
29.438574,-0.039327,-0.007752,0.085312
29.458624,-0.032921,-0.008886,0.094938
29.468665,-0.032920,-0.004579,0.087481
29.478674,-0.040402,-0.015260,0.092751
29.488715,-0.041468,-0.017412,0.097010
29.498755,-0.043619,-0.019496,0.087381
29.508765,-0.053210,-0.023777,0.095880
29.528815,-0.072391,-0.025881,0.102226
29.538855,-0.057502,-0.033369,0.094754
29.548865,-0.055343,-0.025921,0.099068
29.558905,-0.055320,-0.022763,0.108697
29.568945,-0.048952,-0.029161,0.102275
29.578955,-0.046783,-0.020670,0.111935
29.599005,-0.037192,-0.022852,0.115156
29.609045,-0.036121,-0.023948,0.120495
29.619055,-0.037221,-0.032453,0.112974
29.629095,-0.034001,-0.029305,0.122612
29.639136,-0.042514,-0.026089,0.125808
29.649145,-0.028672,-0.033630,0.130084
29.669196,-0.036115,-0.028276,0.132225
29.679236,-0.039303,-0.029374,0.140757
29.689246,-0.037175,-0.027215,0.134363
29.699286,-0.043551,-0.024020,0.140770
29.709326,-0.040331,-0.018716,0.146145
29.719336,-0.048915,-0.037896,0.142826
29.739386,-0.036054,-0.018776,0.155771
29.749426,-0.032876,-0.023033,0.150418
29.759436,-0.037141,-0.029477,0.161058
29.769476,-0.041393,-0.023035,0.156804
29.779517,-0.047787,-0.025171,0.161049
29.789526,-0.044589,-0.027337,0.165321
29.809576,-0.048868,-0.034814,0.168478
29.819617,-0.044579,-0.029524,0.175992
29.829626,-0.044613,-0.040188,0.172737
29.839667,-0.053123,-0.035903,0.175939
29.849707,-0.062704,-0.034830,0.181258
29.859717,-0.039283,-0.042361,0.177014
29.879767,-0.056316,-0.040215,0.186591
29.889807,-0.041393,-0.040269,0.187701
29.899817,-0.052039,-0.038119,0.191954
29.909857,-0.049930,-0.044518,0.188725
29.919897,-0.053123,-0.046674,0.195115
29.929907,-0.061641,-0.044520,0.197239
29.949957,-0.057366,-0.044570,0.204728
29.959998,-0.052042,-0.043494,0.199406
29.970007,-0.049922,-0.049928,0.203655
29.980048,-0.058457,-0.052026,0.201485
29.990088,-0.058442,-0.048843,0.205773
30.000098,-0.055251,-0.049911,0.203640
30.010138,-0.061619,-0.043513,0.210062
30.020148,-0.062695,-0.044552,0.204713
30.030188,-0.049890,-0.042488,0.211167
30.040198,-0.058407,-0.037106,0.207965
30.050238,-0.060529,-0.037129,0.214368
30.060278,-0.054122,-0.032878,0.214406
30.070288,-0.041337,-0.033983,0.213368
30.090338,-0.045584,-0.028634,0.214449
30.100378,-0.047697,-0.025454,0.220868
30.110388,-0.053049,-0.032907,0.219750
30.120428,-0.059451,-0.035017,0.218654
30.130469,-0.071144,-0.027534,0.225066
30.140478,-0.065817,-0.028624,0.226144
30.160529,-0.066903,-0.038252,0.230368
30.170569,-0.063695,-0.036142,0.233592
30.180579,-0.056196,-0.027668,0.243266
30.180579,-0.056196,-0.027668,0.243266
30.200659,-0.050893,-0.038375,0.245367
30.210669,-0.041278,-0.033092,0.250760
30.230749,-0.043406,-0.038485,0.263547
30.230749,-0.043406,-0.038485,0.263547
30.250799,-0.044458,-0.040678,0.276352
30.250799,-0.044458,-0.040678,0.276352
30.270880,-0.035923,-0.041809,0.283848
30.280889,-0.039099,-0.038636,0.292400
30.300939,-0.028422,-0.037653,0.303116
30.300939,-0.028422,-0.037653,0.303116
30.310980,-0.012404,-0.027031,0.304279
30.320989,-0.030531,-0.034488,0.312739
30.331030,-0.025195,-0.034525,0.317026
30.351080,-0.031564,-0.032435,0.330905
30.361120,-0.032632,-0.035655,0.335160
30.361120,-0.032632,-0.035655,0.335160
30.371130,-0.019827,-0.033591,0.341615
30.381170,-0.034725,-0.029306,0.349071
30.391180,-0.045378,-0.029287,0.352246
30.401220,-0.040041,-0.030408,0.359733
30.411260,-0.052830,-0.031444,0.361830
30.421270,-0.056020,-0.030381,0.365030
30.441320,-0.053887,-0.034700,0.373562
30.441320,-0.053887,-0.034700,0.373562
30.451361,-0.060245,-0.027255,0.384261
30.461370,-0.040000,-0.032690,0.390701
30.471411,-0.052795,-0.033712,0.389593
30.481451,-0.066625,-0.029435,0.398120
30.491461,-0.052763,-0.031657,0.406694
30.511511,-0.081537,-0.029417,0.404488
30.511511,-0.081537,-0.029417,0.404488
30.521551,-0.079414,-0.039091,0.416199
30.531561,-0.060247,-0.045561,0.416221
30.541601,-0.080461,-0.036992,0.424752
30.551641,-0.096469,-0.043338,0.422541
30.561651,-0.079428,-0.053050,0.432156
30.581701,-0.106076,-0.055110,0.434209
30.581701,-0.106076,-0.055110,0.434209
30.591741,-0.096471,-0.054103,0.440650
30.601751,-0.090078,-0.054119,0.439599
30.611791,-0.114595,-0.058336,0.444852
30.621832,-0.119941,-0.062575,0.441613
30.631841,-0.115679,-0.066891,0.448013
30.661932,-0.124204,-0.069025,0.453321
30.661932,-0.124204,-0.069025,0.453321
30.671942,-0.130615,-0.074339,0.452210
30.681982,-0.122062,-0.065833,0.454410
30.692022,-0.133795,-0.067921,0.452231
30.702032,-0.129542,-0.071133,0.451160
30.722082,-0.133804,-0.070046,0.450085
30.722082,-0.133804,-0.070046,0.450085
30.732122,-0.141264,-0.070022,0.450064
30.742132,-0.128464,-0.066865,0.451183
30.752172,-0.142342,-0.074290,0.450041
30.762213,-0.141261,-0.068954,0.450069
30.772222,-0.133792,-0.063619,0.445842
30.802313,-0.133777,-0.056128,0.442673
30.802313,-0.133777,-0.056128,0.442673
30.812322,-0.133770,-0.056148,0.446946
30.822363,-0.129504,-0.054016,0.444832
30.832403,-0.125219,-0.047638,0.448078
30.842413,-0.130564,-0.054033,0.449101
30.862463,-0.119858,-0.041293,0.457737
30.862463,-0.119858,-0.041293,0.457737
30.872503,-0.114562,-0.050901,0.453433
30.882513,-0.099624,-0.045615,0.454568
30.892553,-0.118799,-0.047739,0.465187
30.902593,-0.098567,-0.050978,0.458818
30.912603,-0.097488,-0.051022,0.467367
30.942694,-0.090016,-0.054316,0.481259
30.942694,-0.090016,-0.054316,0.481259
30.952703,-0.096408,-0.052149,0.479115
30.962744,-0.083630,-0.057541,0.481261
30.972784,-0.081482,-0.056520,0.489817
30.982794,-0.088942,-0.055423,0.488734
31.002844,-0.091068,-0.058665,0.498326
31.012884,-0.081471,-0.056556,0.497295
31.022894,-0.083587,-0.055521,0.505839
31.032934,-0.091071,-0.062962,0.503647
31.042974,-0.075075,-0.061967,0.507969
31.052984,-0.070794,-0.056651,0.510142
31.073034,-0.068645,-0.055636,0.519767
31.073034,-0.068645,-0.055636,0.519767
31.083074,-0.070777,-0.055629,0.519761
31.093084,-0.075050,-0.058814,0.518666
31.103124,-0.068624,-0.050316,0.524065
31.113165,-0.073969,-0.055633,0.522957
31.123174,-0.067565,-0.055685,0.529384
31.133215,-0.075015,-0.051384,0.528315
31.143225,-0.084621,-0.056697,0.529332
31.153265,-0.071817,-0.053550,0.532587
31.163275,-0.089935,-0.051340,0.529342
31.173315,-0.094202,-0.053467,0.530389
31.183355,-0.072883,-0.049239,0.525127
31.193365,-0.098455,-0.051333,0.533592
31.213415,-0.064312,-0.040790,0.539077
31.213415,-0.064312,-0.040790,0.539077
31.223455,-0.070709,-0.038608,0.533729
31.233511,-0.061072,-0.026932,0.542356
31.243551,-0.058938,-0.028022,0.545562
31.253592,-0.056830,-0.031187,0.535939
31.263601,-0.051442,-0.016309,0.547774
31.273642,-0.064275,-0.027979,0.540206
31.283651,-0.038671,-0.020602,0.543516
31.293692,-0.058887,-0.009872,0.546716
31.303701,-0.068530,-0.019377,0.530621
31.313742,-0.084502,-0.021526,0.544453
31.323782,-0.079191,-0.022561,0.533781
31.333792,-0.087735,-0.028941,0.533727
31.353842,-0.113362,-0.042710,0.527182
31.363882,-0.112296,-0.043792,0.529316
31.373892,-0.125117,-0.047961,0.516443
31.383932,-0.136878,-0.061806,0.516345
31.393972,-0.129398,-0.056506,0.519595
31.403982,-0.128347,-0.056464,0.509984
31.434073,-0.103835,-0.057617,0.511115
31.434073,-0.103835,-0.057617,0.511115
31.444082,-0.094210,-0.050213,0.519722
31.454123,-0.103829,-0.057637,0.515387
31.464163,-0.073978,-0.057759,0.520810
31.474173,-0.071841,-0.053474,0.516564
31.494223,-0.063340,-0.064196,0.519741
31.494223,-0.063340,-0.064196,0.519741
31.504263,-0.053738,-0.058873,0.516588
31.514273,-0.080378,-0.055567,0.513326
31.524313,-0.086816,-0.068336,0.507906
31.534353,-0.088917,-0.059811,0.513282
31.544363,-0.091101,-0.076871,0.508922
31.564413,-0.120926,-0.070366,0.508871
31.564413,-0.120926,-0.070366,0.508871
31.574453,-0.116677,-0.077876,0.513120
31.584463,-0.137951,-0.061783,0.512069
31.594503,-0.132646,-0.071416,0.513106
31.604544,-0.116628,-0.056487,0.506812
31.614553,-0.140070,-0.054275,0.506757
31.634604,-0.126170,-0.040457,0.511134
31.644644,-0.130421,-0.037250,0.513274
31.654654,-0.138940,-0.040476,0.523917
31.664694,-0.110137,-0.030958,0.524042
31.674734,-0.107985,-0.024568,0.526215
31.684744,-0.115446,-0.027773,0.531520
31.704794,-0.102630,-0.012818,0.522012
31.704794,-0.102630,-0.012818,0.522012
31.714834,-0.129291,-0.019144,0.522977
31.724844,-0.130360,-0.021286,0.525100
31.734884,-0.109021,-0.014963,0.528394
31.744925,-0.139948,-0.023421,0.531473
31.754934,-0.118625,-0.021360,0.532610
31.774984,-0.139992,-0.040518,0.533528
31.785025,-0.123969,-0.029911,0.537895
31.795034,-0.144225,-0.025518,0.526110
31.805075,-0.150661,-0.039370,0.523890
31.815115,-0.146374,-0.031919,0.526074
31.825125,-0.141072,-0.041547,0.526043
31.845175,-0.151730,-0.041513,0.526013
31.845175,-0.151730,-0.041513,0.526013
31.855215,-0.135738,-0.039424,0.524999
31.865225,-0.133635,-0.047959,0.521760
31.875265,-0.128296,-0.044778,0.522858
31.885305,-0.132574,-0.047947,0.518558
31.895315,-0.116567,-0.043753,0.523964
31.915365,-0.133632,-0.042584,0.514308
31.925406,-0.122996,-0.047933,0.508971
31.935415,-0.118714,-0.039388,0.505819
31.945456,-0.148564,-0.043578,0.508921
31.955496,-0.132574,-0.042562,0.508970
31.965506,-0.124032,-0.038328,0.511150
31.985556,-0.114440,-0.040515,0.515439
31.985556,-0.114440,-0.040515,0.515439
31.995596,-0.102715,-0.039481,0.514408
32.005606,-0.126148,-0.034065,0.514369
32.015646,-0.119782,-0.046921,0.518599
32.025686,-0.108077,-0.054440,0.519664
32.035696,-0.116615,-0.058684,0.519620
32.055746,-0.129415,-0.066148,0.525959
32.065786,-0.133690,-0.069328,0.523795
32.075796,-0.124108,-0.075792,0.529132
32.085836,-0.127304,-0.074708,0.528060
32.095877,-0.121976,-0.076877,0.531269
32.105887,-0.133719,-0.082163,0.528007
32.125937,-0.141179,-0.083217,0.530118
32.135977,-0.125203,-0.086468,0.529079
32.145987,-0.137988,-0.085363,0.530117
32.156027,-0.131573,-0.077908,0.530170
32.166067,-0.131563,-0.076861,0.534448
32.176077,-0.130497,-0.077942,0.536582
32.196127,-0.128351,-0.071531,0.534482
32.196127,-0.128351,-0.071531,0.534482
32.206167,-0.121934,-0.065160,0.537734
32.216177,-0.142192,-0.067225,0.536600
32.226217,-0.135815,-0.073653,0.536588
32.236282,-0.132598,-0.066183,0.535564
32.246291,-0.133677,-0.071524,0.536604
32.266341,-0.143294,-0.080031,0.535468
32.276382,-0.133668,-0.070477,0.540881
32.286391,-0.164586,-0.073575,0.539713
32.296432,-0.153949,-0.078929,0.535444
32.306472,-0.143272,-0.074717,0.540835
32.316482,-0.172062,-0.076734,0.535405
32.326522,-0.160329,-0.075725,0.539715
32.336532,-0.147538,-0.075771,0.540818
32.346572,-0.157136,-0.077876,0.540781
32.356582,-0.153908,-0.070441,0.547235
32.366622,-0.141144,-0.077943,0.544030
32.376662,-0.145387,-0.074761,0.551511
32.386672,-0.146452,-0.073684,0.550445
32.406722,-0.144315,-0.073706,0.553655
32.416763,-0.141120,-0.073712,0.552596
32.426772,-0.142157,-0.066258,0.557969
32.436813,-0.150692,-0.070512,0.560062
32.446853,-0.136843,-0.071615,0.557959
32.456863,-0.153861,-0.063052,0.565430
32.476913,-0.131481,-0.062041,0.562292
32.486953,-0.149595,-0.060920,0.563315
32.496963,-0.133593,-0.057788,0.567647
32.507003,-0.130379,-0.052464,0.568749
32.517043,-0.145311,-0.055614,0.567625
32.527053,-0.138916,-0.056713,0.569774
32.537093,-0.135704,-0.049227,0.565545
32.547103,-0.160253,-0.061963,0.565417
32.557143,-0.137846,-0.052419,0.564456
32.567153,-0.155956,-0.050235,0.566553
32.577193,-0.153850,-0.059853,0.566513
32.587234,-0.126116,-0.050321,0.564498
32.597244,-0.145300,-0.048108,0.561251
32.617294,-0.136806,-0.058805,0.559088
32.627334,-0.125057,-0.050305,0.560228
32.637344,-0.148505,-0.050229,0.560164
32.647384,-0.132547,-0.055575,0.550569
32.657424,-0.135712,-0.049202,0.560204
32.667434,-0.138944,-0.056622,0.550546
32.677474,-0.135729,-0.050225,0.550585
32.687484,-0.144260,-0.051260,0.549489
32.697524,-0.137877,-0.051245,0.542029
32.707534,-0.158117,-0.051210,0.548382
32.717574,-0.142170,-0.056520,0.531310
32.727615,-0.146409,-0.052275,0.539864
32.737624,-0.159202,-0.052224,0.537692
32.757674,-0.149637,-0.062939,0.538736
32.767715,-0.150689,-0.051133,0.527039
32.777724,-0.163456,-0.050084,0.539827
32.787765,-0.146459,-0.063967,0.528058
32.797805,-0.132572,-0.055494,0.533478
32.807815,-0.156014,-0.053282,0.533423
32.817855,-0.140052,-0.061872,0.532359
32.827865,-0.112335,-0.060904,0.534576
32.837905,-0.147508,-0.061863,0.535543
32.847915,-0.130441,-0.058730,0.538809
32.857955,-0.104863,-0.060964,0.542074
32.867995,-0.127266,-0.067288,0.539846
32.878005,-0.116604,-0.068411,0.544143
32.898055,-0.116591,-0.065223,0.547363
32.908096,-0.121936,-0.070540,0.546255
32.918105,-0.113409,-0.074880,0.554803
32.928146,-0.104895,-0.080252,0.555870
32.938186,-0.116603,-0.075958,0.559062
32.948196,-0.124049,-0.074901,0.566524
32.958236,-0.099538,-0.073897,0.563392
32.968246,-0.114462,-0.081380,0.575066
32.978286,-0.104875,-0.083547,0.575082
32.988296,-0.098469,-0.083603,0.582577
32.998336,-0.102725,-0.081459,0.583643
33.008376,-0.110169,-0.078256,0.588979
33.018386,-0.103787,-0.083621,0.590040
33.038436,-0.110158,-0.082598,0.603914
33.048476,-0.116547,-0.081520,0.606037
33.058486,-0.121885,-0.089013,0.613465
33.068526,-0.106965,-0.086906,0.609243
33.078567,-0.128254,-0.082610,0.618819
33.088577,-0.143208,-0.094309,0.618722
33.098617,-0.102696,-0.088013,0.614591
33.108627,-0.162351,-0.081452,0.623003
33.118667,-0.158110,-0.086780,0.617648
33.128677,-0.120822,-0.092241,0.617725
33.138717,-0.185815,-0.085632,0.619713
33.148757,-0.154912,-0.084640,0.614462
33.158767,-0.174074,-0.081414,0.622970
33.178817,-0.181542,-0.079213,0.614414
33.188857,-0.186858,-0.074929,0.615488
33.198867,-0.196477,-0.082353,0.611154
33.208907,-0.182601,-0.074923,0.611227
33.218948,-0.191121,-0.068452,0.603757
33.228957,-0.210322,-0.076954,0.607936
33.239021,-0.168742,-0.067437,0.599551
33.249030,-0.209242,-0.070539,0.605833
33.259071,-0.205026,-0.081177,0.594044
33.269080,-0.186860,-0.063071,0.592044
33.279121,-0.210336,-0.076908,0.598323
33.289161,-0.203963,-0.080092,0.589779
33.299171,-0.191166,-0.076925,0.588762
33.319221,-0.210360,-0.078988,0.586562
33.329261,-0.181585,-0.080155,0.587705
