time_tick,gyr_X_value,gyr_Y_value,gyr_Z_value
-0.003456,0.105417,-0.033428,-0.004140
0.006584,-0.198198,0.016673,-0.002605
0.016594,-0.212096,0.002850,-0.005914
0.026635,-0.013941,-0.027691,-0.006579
0.036675,0.108590,-0.040904,-0.006303
0.046685,0.087310,-0.031254,0.000093
0.056725,-0.025611,-0.014898,0.006268
0.066735,-0.063995,-0.020108,0.005069
0.076775,-0.021364,-0.018091,0.000924
0.086785,0.024448,-0.024647,0.001019
0.096825,0.013793,-0.023544,0.000995
0.106835,-0.018192,-0.027717,0.001955
0.116875,-0.026697,-0.021292,0.004098
0.126885,-0.008574,-0.019210,0.003090
0.136925,0.018051,-0.025699,0.002065
0.146965,0.003149,-0.018170,0.000991
0.156975,-0.013927,-0.027736,0.003035
0.167015,-0.028826,-0.019139,0.001966
0.177025,-0.002194,-0.023493,0.000951
0.187065,0.014863,-0.022485,0.002071
0.197075,-0.003259,-0.023494,0.002016
0.207115,-0.013922,-0.026673,0.004108
0.217125,-0.019237,-0.020238,0.001988
0.227166,0.005263,-0.024585,0.000966
0.237175,0.011673,-0.019266,0.001009
0.247216,-0.003279,-0.030970,0.001981
0.257256,-0.029889,-0.019146,0.004100
0.267266,-0.014969,-0.018111,0.000941
0.277306,0.022312,-0.026781,0.002071
0.287316,-0.000051,-0.020306,0.003108
0.297356,-0.019254,-0.027724,0.004088
0.307366,-0.023497,-0.019157,0.001981
0.317406,0.004205,-0.021372,-0.000089
0.327416,0.007407,-0.021398,0.003124
0.337456,-0.007516,-0.021344,0.002015
0.347466,-0.013921,-0.026678,0.005176
0.357506,-0.025623,-0.017014,0.001985
0.367546,0.010597,-0.023539,0.002054
0.377556,0.012736,-0.021415,0.003139
0.387596,-0.007534,-0.027752,0.001984
0.397606,-0.030952,-0.018075,0.004102
0.407646,-0.009649,-0.020254,-0.001191
0.417656,0.023385,-0.024654,0.003153
0.427697,-0.006443,-0.019217,0.003096
0.437706,-0.016060,-0.028802,0.004092
0.447747,-0.022427,-0.017019,0.000926
0.457787,0.006334,-0.023525,0.002043
0.467797,0.014864,-0.022490,0.003139
0.477837,-0.011788,-0.025612,0.004119
0.487847,-0.022437,-0.022374,0.004105
0.497887,-0.018173,-0.020237,0.000922
0.507897,0.016987,-0.025701,0.003130
0.517937,0.002091,-0.016036,0.002066
0.527947,-0.013928,-0.027731,0.001967
0.537987,-0.024563,-0.019153,0.001978
0.547997,-0.005381,-0.020283,0.002026
0.558037,0.018062,-0.022501,0.003148
0.568104,-0.004323,-0.023496,0.003082
0.578114,-0.020313,-0.024512,0.003033
0.588154,-0.026684,-0.014869,0.000924
0.598164,0.008458,-0.025663,0.000970
0.608204,0.010608,-0.019267,0.002075
0.618214,-0.008601,-0.028822,0.003045
0.628255,-0.023506,-0.023438,0.004097
0.638264,-0.013904,-0.018115,0.000944
0.648305,0.023375,-0.027852,0.002069
0.658314,0.002087,-0.018177,0.003124
0.668355,-0.022452,-0.027714,0.004080
0.678395,-0.027759,-0.019148,0.003037
0.688405,0.008464,-0.023527,0.000980
0.698445,0.015935,-0.021431,0.004216
0.708455,-0.012852,-0.024536,0.003053
0.718495,-0.022441,-0.023437,0.003032
0.728505,-0.018170,-0.019169,0.000927
0.738545,0.015923,-0.024624,0.002064
0.748555,0.008473,-0.021401,0.003127
0.758595,-0.014985,-0.025602,0.004110
0.768605,-0.024564,-0.020226,0.003041
0.778645,-0.003253,-0.021358,0.002026
0.788685,0.016992,-0.023560,0.002072
0.788685,0.016992,-0.023560,0.002072
0.808735,-0.016058,-0.027729,0.003029
0.818745,-0.024554,-0.015949,0.001993
0.828786,0.012719,-0.025672,-0.000086
0.838795,0.007411,-0.019257,0.002066
0.848836,-0.017114,-0.023449,0.001978
0.858845,-0.019223,-0.015972,0.003076
0.868886,-0.001104,-0.014958,0.002063
0.878895,0.025506,-0.028937,0.004206
0.888936,-0.022412,-0.011680,0.000951
0.898976,-0.011795,-0.026665,0.000909
0.908986,-0.025614,-0.012732,-0.000131
0.908986,-0.025614,-0.012732,-0.000131
0.929036,0.008446,-0.031013,0.003081
0.939076,-0.007526,-0.025621,0.003063
0.949086,-0.026668,-0.010613,0.004149
0.959126,-0.000038,-0.013883,-0.000066
0.969136,-0.008600,-0.024514,-0.004413
0.979176,0.022322,-0.022504,0.001023
0.989186,-0.033075,-0.012708,-0.000152
0.999226,-0.021367,-0.019159,0.000919
1.009266,0.026614,-0.010761,-0.001046
1.019276,0.004212,-0.020320,0.003120
1.029317,-0.018194,-0.028785,0.001950
1.039326,-0.018162,-0.017038,0.002006
1.039326,-0.018162,-0.017038,0.002006
1.059376,0.014845,-0.027815,-0.000091
1.069417,-0.002158,-0.008526,-0.002183
1.079426,-0.002158,-0.008526,0.000828
1.089467,-0.006443,-0.017061,-0.001167
1.099476,0.020204,-0.019309,0.004237
1.109517,-0.025666,-0.030882,-0.001285
1.109517,-0.025666,-0.030882,-0.001285
1.129567,-0.023491,-0.015943,-0.000140
1.129567,-0.023491,-0.015943,-0.000140
1.149617,0.010586,-0.025660,-0.001160
1.159657,-0.008592,-0.025618,0.003060
1.159657,-0.008592,-0.025618,0.003060
1.169667,-0.017123,-0.025575,-0.000168
1.179707,0.001005,-0.023508,0.002028
1.189717,-0.006430,-0.012794,-0.000078
1.199757,0.007373,-0.032062,-0.000131
1.219807,-0.017120,-0.024507,-0.000163
1.229848,-0.003237,-0.016024,0.003120
1.229848,-0.003237,-0.016024,0.003120
1.239857,0.006329,-0.023510,-0.001162
1.249898,0.003112,-0.029902,-0.002269
1.259907,-0.023506,-0.021282,-0.000166
1.269948,-0.014972,-0.019179,0.000936
1.289998,0.008453,-0.025648,-0.002234
1.289998,0.008453,-0.025648,-0.002234
1.300007,-0.014990,-0.024509,-0.001226
1.310048,-0.023512,-0.023418,-0.000176
1.330098,0.001013,-0.018148,-0.002219
1.330098,0.001013,-0.018148,-0.002219
1.340138,0.005241,-0.032055,-0.000137
1.360188,-0.006456,-0.022406,-0.000124
1.360188,-0.006456,-0.022406,-0.000124
1.370198,-0.001111,-0.016010,-0.001147
1.380238,0.010589,-0.023514,-0.003287
1.390248,-0.001158,-0.033097,-0.001228
1.400288,-0.034163,-0.020175,-0.001258
1.410298,-0.007513,-0.020277,0.002020
1.430348,0.004184,-0.028848,-0.000125
1.430348,0.004184,-0.028848,-0.000125
1.440388,-0.022451,-0.024485,-0.001246
1.450429,-0.019243,-0.020218,-0.002285
1.460438,0.005278,-0.019245,0.000992
1.470479,0.002064,-0.023491,-0.002242
1.480488,-0.004333,-0.025616,-0.000133
1.490529,-0.024575,-0.022347,-0.000174
1.500538,-0.005392,-0.023482,0.000942
1.510579,0.004209,-0.019231,-0.001148
1.520589,-0.001145,-0.027753,-0.002271
1.530629,-0.006468,-0.026677,-0.000144
1.540639,-0.016051,-0.023442,-0.000155
1.550679,-0.005376,-0.017070,-0.000096
1.570728,0.002047,-0.030977,-0.000141
1.570728,0.002047,-0.030977,-0.000141
1.580768,-0.025651,-0.025542,-0.001260
1.590778,-0.008594,-0.024535,-0.000140
1.600818,0.003149,-0.017092,-0.001140
1.610828,0.008450,-0.026716,-0.002239
1.620868,-0.009667,-0.025584,-0.003352
1.640918,-0.009641,-0.017051,-0.001176
1.640918,-0.009641,-0.017051,-0.001176
1.650928,0.011652,-0.024585,-0.003289
1.660968,0.004184,-0.027770,-0.002256
1.671009,-0.021385,-0.023410,-0.003374
1.681018,-0.016049,-0.021297,-0.002282
1.691059,0.004210,-0.019237,-0.000079
1.711109,-0.007532,-0.025601,-0.001210
1.711109,-0.007532,-0.025601,-0.001210
1.731159,-0.004323,-0.021340,-0.001181
1.731159,-0.004323,-0.021340,-0.001181
1.741169,0.006348,-0.016030,-0.002195
1.751209,0.002046,-0.028821,-0.004404
1.761219,-0.019262,-0.026621,-0.003384
1.781299,0.004204,-0.020294,-0.002221
1.781299,0.004204,-0.020294,-0.002221
1.791309,0.008462,-0.022444,-0.002219
1.801349,-0.002213,-0.027744,-0.003342
1.811359,-0.022457,-0.025542,-0.003388
1.821399,-0.016038,-0.018098,-0.001198
1.831409,0.008467,-0.019230,-0.004340
1.851459,-0.026708,-0.021257,-0.003379
1.851459,-0.026708,-0.021257,-0.003379
1.861499,-0.020325,-0.025549,-0.003382
1.871509,0.003146,-0.018160,-0.001145
1.881549,0.004195,-0.022420,-0.004367
1.891590,-0.000091,-0.032028,-0.002288
1.901599,-0.033103,-0.021236,-0.003397
1.921650,0.009535,-0.020317,-0.001138
1.921650,0.009535,-0.020317,-0.001138
1.931690,-0.002210,-0.026676,-0.003337
1.941700,-0.011794,-0.024514,-0.002285
1.951740,-0.015002,-0.027702,-0.003377
1.961750,-0.012844,-0.019176,-0.001194
1.971790,0.004200,-0.021357,-0.003294
1.991840,-0.026717,-0.024461,-0.003394
1.991840,-0.026717,-0.024461,-0.003394
2.001880,-0.019249,-0.022354,-0.002295
2.011890,0.004209,-0.018153,-0.003279
2.021930,0.013771,-0.027786,-0.005434
2.031940,-0.010737,-0.027721,-0.002297
2.041980,-0.019261,-0.025548,-0.004447
2.062030,0.003141,-0.018145,-0.004350
2.062030,0.003141,-0.018145,-0.004350
2.072040,0.008431,-0.033118,-0.003338
2.082080,-0.017122,-0.022346,-0.005494
2.092090,-0.017131,-0.026628,-0.003378
2.102130,-0.004304,-0.013859,-0.002214
2.112171,0.013780,-0.023504,-0.007551
2.132221,-0.040565,-0.022285,-0.002354
2.132221,-0.040565,-0.022285,-0.002354
2.142231,-0.010723,-0.022382,-0.002272
2.152271,0.007407,-0.017091,-0.004333
2.162281,0.007373,-0.028833,-0.005457
2.172321,-0.011797,-0.025582,-0.002290
2.182331,-0.025654,-0.025532,-0.003396
2.202381,-0.000060,-0.020275,-0.003301
2.202381,-0.000060,-0.020275,-0.003301
2.212421,0.002043,-0.029889,-0.004409
2.222461,-0.010730,-0.025591,-0.001219
2.232471,-0.020316,-0.022346,-0.003367
2.242511,0.003140,-0.019218,-0.003287
2.252521,0.015900,-0.028861,-0.005434
2.272571,-0.028846,-0.023386,-0.003395
2.272571,-0.028846,-0.023386,-0.003395
2.282611,-0.006454,-0.020260,-0.002250
2.292621,0.006343,-0.017092,-0.003268
2.302661,0.012704,-0.028855,-0.004374
2.312671,-0.023526,-0.025529,-0.005527
2.322712,-0.026707,-0.020184,-0.004442
2.342762,0.012720,-0.022443,-0.005412
2.342762,0.012720,-0.022443,-0.005412
2.352802,-0.004347,-0.027727,-0.005484
2.362812,-0.016065,-0.025553,-0.005506
2.372852,-0.012852,-0.020229,-0.004404
2.382862,-0.001129,-0.020262,-0.005440
2.392902,0.007373,-0.028833,-0.005457
2.412952,-0.021394,-0.025536,-0.005521
2.412952,-0.021394,-0.025536,-0.005521
2.422962,-0.010710,-0.017037,-0.003315
2.433002,0.016988,-0.020316,-0.006458
2.443042,0.010566,-0.029906,-0.006522
2.453052,-0.025656,-0.024449,-0.006596
2.463092,-0.028825,-0.015910,-0.003360
2.483142,0.013768,-0.027776,-0.007571
2.483142,0.013768,-0.027776,-0.007571
2.493152,-0.008602,-0.024509,-0.005481
2.503192,-0.023528,-0.027675,-0.003401
2.513202,-0.012837,-0.014889,-0.004379
2.523243,0.021255,-0.019267,-0.005373
2.533252,-0.003287,-0.029866,-0.005491
2.553333,-0.035231,-0.018010,-0.006592
2.553333,-0.035231,-0.018010,-0.006592
2.563355,0.008459,-0.023512,-0.002224
2.573395,0.006316,-0.024548,-0.007576
2.583405,-0.001153,-0.029883,-0.003349
2.593445,-0.035242,-0.024438,-0.002349
2.603455,-0.012856,-0.022370,-0.003346
2.623505,-0.003283,-0.028803,-0.004418
2.623505,-0.003283,-0.028803,-0.004418
2.633545,-0.021402,-0.027667,-0.006599
2.643555,-0.004332,-0.024543,-0.001196
2.653595,-0.011777,-0.017029,-0.004386
2.663635,0.018042,-0.025669,-0.004344
2.673645,0.008445,-0.027779,-0.003313
2.693695,-0.021378,-0.021279,-0.002296
2.693695,-0.021378,-0.021279,-0.002296
2.703735,0.013801,-0.017107,-0.005384
2.713745,0.013771,-0.027786,-0.005434
2.723786,-0.013933,-0.026638,-0.003369
2.733795,-0.029917,-0.025518,-0.003408
2.743836,-0.012844,-0.017020,-0.005457
2.763886,0.003102,-0.032023,-0.005484
2.763886,0.003102,-0.032023,-0.005484
2.773926,-0.037372,-0.022280,-0.005550
2.783936,-0.014986,-0.020212,-0.006546
2.793976,0.008474,-0.016021,-0.005393
2.803986,0.016967,-0.026713,-0.008625
2.814026,-0.009676,-0.027710,-0.005499
2.834076,-0.005387,-0.019190,-0.003310
2.834076,-0.005387,-0.019190,-0.003310
2.844086,0.022324,-0.018202,-0.005365
2.854126,0.011627,-0.033124,-0.004397
2.864136,-0.025659,-0.025517,-0.006601
2.874176,-0.024595,-0.026593,-0.005535
2.884216,0.002080,-0.018157,-0.001148
2.904266,0.004163,-0.034167,-0.004423
2.914276,-0.030985,-0.025510,-0.004479
2.924317,-0.014987,-0.022363,-0.003352
2.934326,0.011666,-0.019246,-0.003263
2.944367,0.014824,-0.032056,-0.006520
2.954376,-0.019277,-0.031960,-0.003409
2.964417,-0.033103,-0.022314,-0.001265
2.974426,0.012732,-0.020327,-0.001129
2.984467,0.026568,-0.026775,-0.002190
2.994507,-0.012876,-0.029845,-0.003381
3.004517,-0.028850,-0.025527,-0.002337
3.014557,-0.009649,-0.020254,-0.001191
3.024567,0.012738,-0.018191,-0.001119
3.044617,-0.012866,-0.027725,-0.000167
3.054657,-0.032037,-0.022318,-0.001262
3.064667,-0.000051,-0.018150,-0.001154
3.074707,0.014865,-0.019261,-0.002186
3.084717,0.002043,-0.030967,-0.002277
3.094757,-0.030970,-0.021248,-0.002323
3.104798,-0.013920,-0.022371,-0.002281
3.114807,0.008484,-0.014974,-0.001116
3.124848,0.004204,-0.019216,-0.004352
3.134857,-0.012870,-0.028787,-0.001240
3.144898,-0.033109,-0.023372,-0.003407
3.154907,-0.003255,-0.019197,-0.003304
3.164948,-0.001110,-0.014937,-0.002210
3.174957,0.004176,-0.029901,-0.003335
3.184998,-0.012868,-0.026641,-0.003366
3.195007,-0.023515,-0.023408,-0.002312
3.205048,-0.010700,-0.015989,0.000963
3.215088,0.005279,-0.016016,-0.004334
3.225098,0.027606,-0.036384,-0.003300
3.235138,-0.025660,-0.027668,-0.003406
3.245148,-0.050129,-0.013725,0.000865
3.255188,-0.001091,-0.009613,0.001020
3.265198,0.048965,-0.021508,-0.002103
3.275238,0.016942,-0.038486,-0.003340
3.285248,-0.068271,-0.022210,0.000774
3.295288,-0.060738,0.002313,0.004116
3.305298,0.064976,-0.015172,0.002244
3.325379,-0.055498,-0.027586,-0.000284
3.335388,-0.083095,0.012002,0.003032
3.345429,0.041543,-0.010835,0.004336
3.355438,0.075554,-0.042963,0.000006
3.365479,-0.059777,-0.031829,-0.003520
3.375488,-0.054270,0.027912,0.006391
3.385529,0.037266,-0.014009,0.001105
3.395538,0.037181,-0.044979,0.000958
3.405579,-0.045827,0.002295,-0.002252
3.415589,-0.014912,0.000018,0.006368
3.425629,0.006339,-0.019233,-0.002210
3.435669,0.006376,-0.007501,0.001050
3.445679,-0.007491,-0.011728,0.000992
3.465729,0.029856,0.000936,0.007564
3.475769,-0.012875,-0.030928,-0.000182
3.485779,-0.025530,0.019316,-0.002116
3.495819,0.030906,-0.003324,0.004343
3.505829,-0.018163,-0.013804,-0.004388
3.515869,-0.019146,0.011789,0.004276
3.535919,-0.006404,-0.007490,0.007424
3.535919,-0.006404,-0.007490,0.007424
3.545960,-0.016999,0.021429,-0.003150
3.555969,0.006412,0.003158,0.005374
3.566054,-0.022334,0.020389,-0.005306
3.576063,0.004308,0.011693,0.008613
3.586104,-0.009558,0.005310,0.012817
3.606154,-0.068371,-0.129615,0.129520
3.616164,-0.092110,-0.280501,0.209925
3.626204,0.209345,-0.358513,0.240299
3.636214,-0.191511,0.058818,0.114048
3.646254,0.089439,-0.031251,-0.002037
3.656294,-0.100047,0.049440,0.002094
3.676344,-0.008417,0.037385,0.004426
3.676344,-0.008417,0.037385,0.004426
3.686354,-0.006338,0.023540,-0.005247
3.696394,-0.006322,0.026719,0.000109
3.706404,-0.011670,0.020334,-0.001004
3.716444,-0.006329,0.024588,-0.000969
3.726454,-0.015943,0.014993,0.002163
3.746504,-0.011652,0.025663,0.001157
3.756544,-0.005306,0.011795,-0.006368
3.766585,-0.014872,0.016052,0.003239
3.776594,0.006436,0.014930,0.000088
3.786635,-0.021310,0.003283,-0.002180
3.796644,-0.007421,0.013902,0.001113
3.806685,-0.007455,0.003238,-0.002142
3.816695,-0.011709,0.006456,-0.002138
3.826735,-0.012791,-0.001031,0.001028
3.836745,-0.009603,-0.003168,-0.001110
3.846785,-0.006360,0.012836,0.000043
3.856795,-0.021393,-0.029848,0.003004
3.866835,-0.007458,0.003248,-0.004278
3.886885,-0.007521,-0.021329,-0.001190
3.896925,-0.016011,-0.010643,0.003110
3.906935,-0.008576,-0.018127,-0.000109
3.916975,-0.003239,-0.017092,0.003115
3.926985,-0.007501,-0.017083,0.004171
3.937025,-0.013969,-0.042682,0.001896
3.957075,-0.007538,-0.029893,0.003042
3.967085,-0.009650,-0.023483,0.004135
3.977125,0.007385,-0.028868,0.002020
3.987166,-0.007540,-0.032039,0.005169
3.997175,0.004234,-0.010693,-0.000039
4.007216,0.002037,-0.038488,0.007301
4.017226,-0.008594,-0.024535,-0.000140
4.027266,0.000985,-0.027754,-0.003333
4.037276,-0.011804,-0.029869,0.000894
4.047316,-0.001113,-0.016005,-0.002215
4.057326,0.000952,-0.038424,-0.005520
4.067366,-0.012866,-0.025568,-0.004429
4.077376,0.002102,-0.008530,-0.004307
4.097456,-0.017110,-0.014845,-0.010800
4.107466,-0.002231,-0.031995,-0.007635
4.117506,-0.005408,-0.022354,-0.011871
4.127516,-0.001151,-0.022347,-0.016132
4.137556,-0.019312,-0.037234,-0.017321
4.147566,-0.009652,-0.009474,-0.022504
4.177656,-0.021402,-0.030813,-0.029006
4.177656,-0.006523,-0.030813,-0.029006
4.187666,-0.020337,-0.016895,-0.026841
4.197706,-0.001172,-0.022281,-0.030019
4.207747,-0.011860,-0.029692,-0.036492
4.217757,-0.019279,-0.015795,-0.034311
4.237807,-0.021410,-0.012559,-0.039642
4.247847,-0.012960,-0.034967,-0.049339
4.257857,-0.026760,-0.013554,-0.051412
4.267897,-0.012918,-0.021094,-0.047137
4.277907,-0.022556,-0.030614,-0.060027
4.287947,-0.025733,-0.023128,-0.060000
4.318037,-0.022579,-0.033772,-0.069656
4.318037,-0.022579,-0.033772,-0.069656
4.328047,-0.024687,-0.021993,-0.074947
4.338087,-0.021538,-0.036929,-0.080350
4.348097,-0.023629,-0.023049,-0.078154
4.358137,-0.010898,-0.041215,-0.084614
4.378187,-0.031118,-0.028319,-0.087813
4.388197,-0.011984,-0.036838,-0.105961
4.398237,-0.034369,-0.043219,-0.096439
4.408247,-0.023696,-0.028222,-0.113430
4.418288,-0.027987,-0.043199,-0.104967
4.428328,-0.027986,-0.034585,-0.119881
4.438338,-0.020525,-0.037843,-0.113466
4.448378,-0.014154,-0.038866,-0.127340
4.458388,-0.039756,-0.049483,-0.123189
4.468428,-0.017345,-0.032413,-0.134796
4.478438,-0.028041,-0.047339,-0.132760
4.488478,-0.022689,-0.034501,-0.141230
4.498488,-0.020557,-0.036664,-0.136962
4.518538,-0.028048,-0.041929,-0.147689
4.528578,-0.015280,-0.046212,-0.154084
4.538618,-0.020606,-0.045126,-0.154093
4.548628,-0.015307,-0.049360,-0.165849
4.558681,-0.028075,-0.046155,-0.157323
4.568691,-0.016377,-0.048263,-0.171188
4.588741,-0.020653,-0.050365,-0.175482
4.598782,-0.011081,-0.056794,-0.177623
4.608791,-0.020650,-0.048219,-0.177609
4.618832,-0.019605,-0.053542,-0.181904
4.628841,-0.003594,-0.043977,-0.182882
4.638882,0.001709,-0.052528,-0.185045
4.648922,-0.001480,-0.048236,-0.187170
4.658932,0.015565,-0.051500,-0.186070
4.668972,0.015580,-0.045082,-0.188176
4.678982,0.027260,-0.048213,-0.211659
4.689022,0.024087,-0.025660,-0.236130
4.699032,0.034623,-0.042543,-0.286387
4.709072,0.021023,0.029944,-0.248694
4.729122,0.076497,-0.066274,-0.039626
4.729122,0.076497,-0.066274,-0.039626
4.749172,0.056283,-0.044778,-0.054535
4.759212,0.050948,-0.041512,-0.064148
4.769222,0.049875,-0.036098,-0.079081
4.779262,0.063663,-0.034852,-0.126038
4.799313,0.057070,-0.048209,-0.232941
4.809322,0.043217,-0.046018,-0.235105
4.809322,0.043217,-0.046018,-0.235105
4.829372,0.041043,-0.052337,-0.252233
4.839413,0.013403,-0.025544,-0.253250
4.849422,0.036740,-0.056509,-0.270424
4.859463,-0.004757,-0.038280,-0.257634
4.859463,-0.004757,-0.038280,-0.257634
4.879513,0.023953,-0.052165,-0.276848
4.889553,0.014414,-0.033990,-0.274652
4.899563,0.075147,-0.029824,-0.293692
4.909603,0.026123,-0.047987,-0.258662
4.919613,0.068793,-0.026701,-0.272331
4.939663,0.074103,-0.033121,-0.273414
4.939663,0.074103,-0.033121,-0.273414
4.959713,0.105024,-0.033262,-0.264784
4.969753,0.113580,-0.017225,-0.274298
4.969753,0.113580,-0.017225,-0.274298
4.989803,0.090122,-0.025733,-0.265858
5.009853,0.125284,-0.020431,-0.281759
5.019894,0.093276,-0.032070,-0.282970
5.019894,0.093276,-0.032070,-0.282970
5.039944,0.110336,-0.024609,-0.291434
5.039944,0.110336,-0.024609,-0.291434
5.059994,0.122037,-0.026727,-0.303162
5.059994,0.122037,-0.026727,-0.303162
5.080044,0.114583,-0.021338,-0.308498
5.080044,0.114583,-0.021338,-0.308498
5.090084,0.106033,-0.028776,-0.310693
5.100094,0.110309,-0.022367,-0.313856
5.110134,0.098578,-0.021230,-0.320292
5.120144,0.111345,-0.025508,-0.327754
5.130184,0.094310,-0.020123,-0.325640
5.150234,0.114537,-0.022269,-0.337344
5.150234,0.114537,-0.022269,-0.337344
5.160244,0.096476,0.000226,-0.339424
5.170284,0.128361,-0.025447,-0.352276
5.180294,0.097588,0.016236,-0.338277
5.190334,0.133717,-0.013702,-0.355410
5.200375,0.111370,-0.006200,-0.345823
5.230434,0.114630,0.020524,-0.353165
5.230434,0.114630,0.020524,-0.353165
5.240475,0.103949,0.009859,-0.348972
5.250484,0.110340,0.013082,-0.357485
5.260525,0.101833,0.016278,-0.350016
5.270534,0.100787,0.026991,-0.356377
5.290584,0.091192,0.027033,-0.358540
5.290584,0.091192,0.027033,-0.358540
5.300625,0.074105,0.016424,-0.361842
5.310665,0.077355,0.037792,-0.366005
5.320675,0.066679,0.027112,-0.358607
5.330715,0.068801,0.032521,-0.374599
5.340725,0.052829,0.031449,-0.362898
5.360775,0.064564,0.043224,-0.376696
5.370815,0.037887,0.036949,-0.386414
5.380825,0.030428,0.038046,-0.387497
5.390865,0.059175,0.034814,-0.401320
5.400875,0.035720,0.038145,-0.412051
5.410915,0.021901,0.047771,-0.405635
5.430965,0.080451,0.038101,-0.433292
5.441006,0.033552,0.035034,-0.430232
5.451015,0.037822,0.040385,-0.435535
5.461056,0.043134,0.037189,-0.440877
5.471065,0.044191,0.040445,-0.452609
5.481106,0.053749,0.031906,-0.460100
5.501156,0.043078,0.033059,-0.470807
5.501156,0.043078,0.033059,-0.470807
5.511166,0.045171,0.021326,-0.475129
5.521206,0.050510,0.027741,-0.480425
5.531246,0.041974,0.025643,-0.482595
5.541256,0.039812,0.014976,-0.483720
5.551296,0.058975,0.013901,-0.495422
5.581375,0.051505,0.016112,-0.506115
5.581375,0.051505,0.016112,-0.506115
5.591415,0.042963,0.012956,-0.510426
5.601425,0.035499,0.014068,-0.514714
5.611465,0.066384,0.003268,-0.510407
5.621475,0.045065,0.008733,-0.522190
5.641556,0.125005,0.000917,-0.504915
5.651565,0.079064,-0.017970,-0.544655
5.661606,0.066218,-0.006976,-0.602322
5.671615,0.121586,-0.012374,-0.627832
5.681656,0.098092,-0.018614,-0.647154
5.691665,0.074653,-0.033646,-0.614176
5.711716,0.130093,-0.037116,-0.595879
5.711716,0.130093,-0.037116,-0.595879
5.721756,0.093919,-0.045815,-0.538337
5.731766,0.134437,-0.039539,-0.538195
5.741806,0.160039,-0.036463,-0.528496
5.751846,0.145079,-0.048142,-0.532865
5.761856,0.142941,-0.045959,-0.541407
5.781906,0.181325,-0.043978,-0.534882
5.791946,0.167451,-0.044950,-0.545607
5.801956,0.182395,-0.042918,-0.533806
5.811996,0.182367,-0.047140,-0.544508
5.822006,0.180256,-0.042886,-0.539152
5.832046,0.175992,-0.042872,-0.539164
5.852096,0.184520,-0.042905,-0.538073
5.862137,0.171719,-0.046057,-0.540259
5.872146,0.180262,-0.036443,-0.546599
5.882187,0.172807,-0.038590,-0.539153
5.892197,0.178133,-0.035368,-0.546600
5.902237,0.155748,-0.033129,-0.553061
5.922287,0.180252,-0.035335,-0.555140
5.932297,0.157871,-0.037418,-0.550939
5.942337,0.145067,-0.036253,-0.562719
5.952347,0.187684,-0.041731,-0.562627
5.962387,0.147144,-0.051171,-0.571330
5.972427,0.155688,-0.048020,-0.565950
5.992477,0.164192,-0.054440,-0.569161
5.992477,0.164192,-0.054440,-0.569161
6.002487,0.153497,-0.054289,-0.593759
6.012527,0.139675,-0.052194,-0.575628
6.022537,0.137522,-0.053199,-0.587389
6.032577,0.163082,-0.053222,-0.600137
6.042587,0.148153,-0.063918,-0.586342
6.062637,0.151379,-0.045708,-0.600134
6.072677,0.135359,-0.058476,-0.599170
6.082718,0.148130,-0.063847,-0.601297
6.092728,0.128990,-0.049922,-0.597011
6.102768,0.123659,-0.041281,-0.614076
6.112778,0.154567,-0.051073,-0.596946
6.142868,0.121553,-0.034891,-0.608711
6.142868,0.121553,-0.034891,-0.608711
6.152878,0.120482,-0.039180,-0.604461
6.162918,0.099160,-0.041247,-0.604530
6.172928,0.093844,-0.035884,-0.605587
6.182968,0.119440,-0.026326,-0.611881
6.193008,0.110892,-0.034847,-0.610876
6.203018,0.105549,-0.043403,-0.604522
6.213058,0.110883,-0.035894,-0.615154
6.223068,0.095965,-0.041241,-0.603470
6.233108,0.126866,-0.038087,-0.614052
6.243118,0.125808,-0.040265,-0.604452
6.253158,0.121534,-0.042372,-0.607678
6.273208,0.134340,-0.037079,-0.606549
6.273208,0.134340,-0.037079,-0.606549
6.283218,0.126864,-0.039160,-0.612989
6.293259,0.140717,-0.042429,-0.608693
6.303299,0.139653,-0.041353,-0.609759
6.313309,0.115138,-0.034805,-0.622615
6.323349,0.132227,-0.026357,-0.613982
6.353409,0.104460,-0.040095,-0.625874
6.353409,0.104460,-0.040095,-0.625874
6.363449,0.105558,-0.028351,-0.625815
6.373459,0.093821,-0.032580,-0.626936
6.383499,0.132175,-0.034810,-0.633250
6.393509,0.124693,-0.048724,-0.621586
6.413589,0.105536,-0.035821,-0.626919
6.413589,0.105536,-0.035821,-0.626919
6.423599,0.116191,-0.040153,-0.621569
6.433639,0.120428,-0.045471,-0.629060
6.443649,0.130018,-0.051960,-0.618382
6.453689,0.145985,-0.047639,-0.639682
6.463699,0.104435,-0.054018,-0.617394
6.493790,0.120391,-0.058281,-0.630189
6.493790,0.120391,-0.058281,-0.630189
6.503799,0.103333,-0.060362,-0.630246
6.513840,0.098018,-0.055005,-0.630235
6.523880,0.092659,-0.063511,-0.634563
6.533890,0.102294,-0.056137,-0.619547
6.553940,0.122534,-0.057245,-0.624837
6.553940,0.122534,-0.057245,-0.624837
6.563993,0.089478,-0.068936,-0.614302
6.574003,0.111887,-0.051861,-0.626977
6.584043,0.116161,-0.051910,-0.619488
6.594053,0.117245,-0.053048,-0.605604
6.604093,0.121514,-0.045540,-0.615171
6.634183,0.127883,-0.060558,-0.605610
6.634183,0.127883,-0.060558,-0.605610
6.644193,0.115124,-0.049842,-0.604526
6.654233,0.112983,-0.050883,-0.608810
6.664243,0.101252,-0.059439,-0.598201
6.674283,0.109779,-0.056237,-0.603503
6.694334,0.117232,-0.062699,-0.597104
6.694334,0.117232,-0.062699,-0.597104
6.704343,0.126850,-0.050963,-0.601295
6.714384,0.059696,-0.063646,-0.583381
6.724393,0.104438,-0.065877,-0.593950
6.734434,0.122595,-0.066057,-0.568263
6.744474,0.115114,-0.069201,-0.575776
6.764524,0.120454,-0.073561,-0.560827
6.774534,0.108748,-0.061730,-0.570417
6.784574,0.138606,-0.065107,-0.554328
6.794584,0.129037,-0.065152,-0.538331
6.804624,0.135414,-0.064039,-0.552195
6.814634,0.123712,-0.071608,-0.524490
6.834684,0.155678,-0.074920,-0.523349
6.834684,0.155678,-0.074920,-0.523349
6.844724,0.125854,-0.069494,-0.521269
6.854764,0.126955,-0.058838,-0.516943
6.864774,0.145112,-0.056862,-0.495519
6.874814,0.112070,-0.055672,-0.498809
6.884824,0.144055,-0.056889,-0.489113
6.904874,0.117405,-0.061095,-0.484933
6.914915,0.146245,-0.046308,-0.469829
6.924924,0.123860,-0.050532,-0.464570
6.934965,0.126029,-0.047427,-0.445321
6.944974,0.105777,-0.048434,-0.444314
6.955015,0.127098,-0.048518,-0.441050
6.975065,0.129261,-0.046470,-0.423943
6.985105,0.115431,-0.037887,-0.422873
6.995115,0.112257,-0.036874,-0.408990
7.005155,0.114408,-0.032635,-0.403623
7.015165,0.094171,-0.031532,-0.397264
7.025205,0.110162,-0.035906,-0.386559
7.045255,0.077142,-0.031552,-0.381288
7.045255,0.077142,-0.031552,-0.381288
7.055265,0.129431,-0.019003,-0.360788
7.065305,0.083553,-0.033780,-0.366326
7.075345,0.102773,-0.028568,-0.352362
7.085355,0.061180,-0.035888,-0.356784
7.095396,0.080413,-0.018869,-0.355582
7.115446,0.062296,-0.026356,-0.340713
7.125455,0.054845,-0.024206,-0.338587
7.135496,0.042056,-0.028477,-0.330096
7.145505,0.045286,-0.012433,-0.337489
7.155546,0.039971,-0.015690,-0.322564
7.165555,0.025015,-0.024150,-0.330123
7.195646,0.050621,-0.015700,-0.327876
7.195646,0.050621,-0.015700,-0.327876
7.205686,0.025032,-0.026357,-0.315178
7.215696,0.020744,-0.035959,-0.314168
7.225736,0.023962,-0.030650,-0.309861
7.235746,0.014391,-0.026378,-0.303458
7.245786,0.038871,-0.034970,-0.309840
7.255796,0.023948,-0.040302,-0.301361
7.265836,0.022899,-0.034964,-0.300270
7.275846,0.026107,-0.026390,-0.308766
7.285886,0.060229,-0.029786,-0.291597
7.295927,0.029282,-0.040334,-0.298141
7.305936,0.005879,-0.025317,-0.295999
7.325986,0.053835,-0.026536,-0.296940
7.336027,0.009078,-0.032874,-0.281071
7.346036,0.009066,-0.028526,-0.297073
7.356077,0.029326,-0.028623,-0.290608
7.366086,-0.011182,-0.032778,-0.287535
7.376127,0.047488,-0.016970,-0.283026
7.396177,0.026111,-0.031791,-0.295973
7.396177,0.026111,-0.031791,-0.295973
7.406217,0.010146,-0.032883,-0.279999
7.416227,-0.015440,-0.024160,-0.300325
7.426267,0.048550,-0.024504,-0.271308
7.436277,0.028200,-0.051051,-0.289649
7.446317,0.011192,-0.038211,-0.283226
7.466367,0.075137,-0.041642,-0.278793
7.476377,0.001615,-0.036074,-0.276833
7.486417,0.050670,-0.026627,-0.275585
7.496427,0.058106,-0.033038,-0.279868
7.506467,0.046349,-0.045820,-0.278892
7.516508,0.046423,-0.023434,-0.270241
7.536558,0.039964,-0.035214,-0.262822
7.536558,0.045337,-0.035214,-0.262822
7.546567,0.034689,-0.020132,-0.283076
7.556608,0.045338,-0.036297,-0.259622
7.566637,0.058131,-0.029885,-0.269170
7.576678,0.040045,-0.019157,-0.267033
7.586688,0.055991,-0.035238,-0.264929
7.606738,0.030452,-0.026662,-0.254277
7.616778,0.025111,-0.024453,-0.266031
7.626818,0.061411,-0.013998,-0.243449
7.636828,0.067785,-0.015031,-0.255187
7.646868,0.058174,-0.023559,-0.252049
7.656878,0.060322,-0.023616,-0.241361
7.676928,0.046500,-0.017214,-0.230687
7.676928,0.046500,-0.017214,-0.230687
7.686968,0.062471,-0.023679,-0.229605
7.696978,0.083782,-0.028040,-0.225294
7.707018,0.045415,-0.030076,-0.220069
7.717028,0.082694,-0.036585,-0.224269
7.727068,0.075307,-0.017404,-0.210312
7.747118,0.065677,-0.032334,-0.208273
7.757159,0.052894,-0.032312,-0.204035
7.767168,0.077450,-0.022831,-0.193241
7.777209,0.063569,-0.031325,-0.194387
7.787219,0.060385,-0.028126,-0.191176
7.797259,0.048673,-0.034586,-0.172011
7.817309,0.041264,-0.017490,-0.168746
7.817309,0.041264,-0.017490,-0.168746
7.827319,0.068926,-0.033584,-0.171951
7.837359,0.089191,-0.034773,-0.160150
7.847369,0.050839,-0.031470,-0.154899
7.857409,0.031654,-0.028174,-0.161346
7.867449,0.049811,-0.025125,-0.140985
7.887499,0.050892,-0.023023,-0.134563
7.897509,0.039178,-0.021937,-0.130318
7.907549,0.049779,-0.037950,-0.138910
7.917559,0.038105,-0.031606,-0.117548
7.927599,0.016804,-0.021890,-0.125038
7.937609,0.043453,-0.026299,-0.114303
7.957659,0.037022,-0.039088,-0.115450
7.957659,0.037022,-0.039088,-0.115450
7.967699,0.012567,-0.025191,-0.101565
7.977740,0.016802,-0.030499,-0.111192
7.987750,0.039205,-0.032794,-0.092981
7.997790,0.012571,-0.026279,-0.097297
8.007800,0.011505,-0.027354,-0.095169
8.027850,0.009376,-0.023045,-0.101563
8.037890,-0.005506,-0.018811,-0.083425
8.047900,0.031792,-0.014610,-0.093984
8.057940,-0.012994,-0.027320,-0.085622
8.067950,0.008363,-0.018901,-0.073773
8.077990,0.022196,-0.015641,-0.095084
8.098040,-0.001229,-0.012407,-0.085519
8.108080,0.006258,-0.008205,-0.075865
8.118090,-0.005457,-0.010348,-0.066293
8.128130,0.001973,-0.009198,-0.088700
8.138140,-0.001173,-0.003965,-0.064115
8.148180,0.010508,-0.012485,-0.076941
8.168230,-0.012848,0.003458,-0.044884
8.178240,0.047800,-0.013649,-0.082185
8.188281,0.011628,-0.014817,-0.036357
8.198321,-0.006517,-0.008209,-0.066286
8.208331,0.052048,-0.029773,-0.063022
8.218371,-0.001140,-0.010534,-0.029963
8.238421,0.013732,-0.022274,-0.041728
8.248431,0.012668,-0.017969,-0.048120
8.258471,0.037092,-0.050081,-0.049272
8.268481,-0.028826,-0.001906,-0.028930
8.278521,0.008367,-0.031838,-0.048197
8.288531,0.032910,-0.030936,-0.029965
8.308611,0.038252,-0.029915,-0.023536
8.318621,0.043571,-0.037444,-0.016080
8.328661,0.037186,-0.030990,-0.021408
8.338671,0.055319,-0.030016,-0.013876
8.348711,0.038241,-0.038499,-0.015031
8.358721,0.003096,-0.034159,-0.005494
8.368761,0.046787,-0.035359,-0.007515
8.378771,0.044714,-0.011837,-0.011683
8.388812,0.009456,-0.049151,-0.001275
8.398821,-0.003287,-0.030944,-0.003360
8.408862,0.029741,-0.031016,-0.010747
8.418902,0.015889,-0.038523,0.005203
8.428912,0.021207,-0.037426,-0.004391
8.438952,-0.003295,-0.031997,-0.006570
8.448962,-0.011815,-0.031990,-0.002320
8.459002,0.008389,-0.040528,-0.017260
8.469012,-0.008617,-0.038463,0.009408
8.479052,0.010561,-0.028813,-0.011857
8.489062,0.006295,-0.040637,0.007303
8.499102,-0.012864,-0.029886,0.005164
8.519152,0.002073,-0.028907,0.013756
8.529192,0.028672,-0.029925,-0.015017
8.529192,0.028672,-0.029925,-0.015017
8.549242,0.036145,-0.027833,-0.010714
8.549242,0.036145,-0.027833,-0.010714
8.569331,-0.018180,-0.030987,0.015826
8.579341,0.039305,-0.033112,-0.025685
8.579341,0.039305,-0.033112,-0.025685
8.599391,0.010589,-0.023514,-0.003287
8.609432,0.014843,-0.027810,-0.001159
8.619441,-0.034197,-0.031917,-0.002382
8.629482,0.024402,-0.035276,-0.009713
8.639522,0.004195,-0.028883,0.007352
8.659572,0.008391,-0.041611,-0.014060
8.669582,-0.013948,-0.040597,0.012588
8.679622,0.033996,-0.034234,-0.010750
8.689632,0.019097,-0.040719,0.015883
8.699672,-0.006522,-0.040510,-0.010892
8.699672,-0.006522,-0.040510,-0.010892
8.719722,0.050023,-0.035490,0.018130
8.739772,0.023410,-0.023657,0.018112
8.739772,0.023410,-0.023657,0.018112
8.759822,0.032979,-0.026846,0.008510
8.769862,0.025544,-0.026903,0.025580
8.769862,0.025544,-0.026903,0.025580
8.779872,0.029792,-0.023637,0.009584
8.789913,0.029806,-0.022604,0.017067
8.809963,0.037273,-0.019415,0.014966
8.809963,0.037273,-0.019415,0.014966
8.830013,0.020207,-0.026860,0.020225
8.830013,0.020207,-0.026860,0.020225
8.840022,0.007444,-0.017207,0.020235
8.850063,0.014937,-0.013026,0.034162
8.860103,0.042655,-0.002365,0.019335
8.890163,0.022334,-0.021467,0.007438
8.890163,0.022334,-0.021467,0.007438
8.900203,0.023437,-0.021587,0.032009
8.910213,-0.007386,0.008406,0.034202
8.930263,-0.008429,0.013724,0.039566
8.940303,-0.004316,-0.018131,-0.002234
8.940303,-0.004316,-0.018131,-0.002234
8.950313,-0.003197,-0.015072,0.027693
8.960353,0.009661,0.016985,0.015062
8.970394,0.012737,-0.031113,0.021252
8.980403,-0.011589,0.041621,0.014052
8.990444,-0.051141,-0.004197,0.019067
9.000453,0.034093,-0.008690,0.007531
9.030544,0.040460,-0.016161,0.002172
9.030544,0.040460,-0.016161,0.002172
9.040553,-0.025522,0.002057,0.034122
9.050594,0.027662,-0.009631,-0.014924
9.060603,-0.000027,-0.025767,0.028720
9.070644,-0.017050,-0.006418,0.013809
9.090694,-0.005223,-0.003551,0.076880
9.090694,-0.005223,-0.003551,0.076880
9.100734,0.021205,-0.029880,-0.019311
9.110744,-0.002154,-0.036545,0.051095
9.120784,-0.021339,-0.016015,0.013752
9.130794,0.015889,-0.043908,0.014791
9.140834,0.008566,-0.003383,0.032054
9.170894,0.040431,-0.028996,0.006384
9.170894,0.040431,-0.028996,0.006384
9.180934,0.005251,-0.045012,0.029712
9.190975,0.008499,-0.018253,0.014892
9.200984,0.006363,-0.025772,0.025533
9.211025,0.022319,-0.032191,0.017001
9.231075,-0.006379,-0.007571,0.024515
9.241084,0.018079,-0.022556,0.014898
9.251125,-0.005371,-0.022470,0.012697
9.261134,-0.000076,-0.039615,0.021177
9.271175,0.000047,0.004160,0.023521
9.281185,-0.002222,-0.033099,-0.000163
9.301265,-0.003265,-0.023474,-0.002256
9.311275,0.003116,-0.044995,0.027569
9.321315,-0.019146,0.011789,0.004276
9.331325,-0.009713,-0.052368,0.014680
9.341365,-0.016962,0.008386,0.044858
9.351375,-0.011891,-0.054371,-0.012040
9.381465,-0.014994,-0.036347,0.017946
9.381465,-0.014994,-0.036347,0.017946
9.391475,0.001073,-0.002180,0.008538
9.401515,0.004157,-0.049230,0.019006
9.411556,0.002165,0.005272,0.012849
9.421565,0.005286,-0.025734,0.018053
9.441615,0.013785,-0.033217,0.013768
9.441615,0.013785,-0.033217,0.013768
9.451656,-0.013873,-0.017133,0.019108
9.461665,0.020217,-0.019349,0.012783
9.471706,0.003174,-0.017173,0.015951
9.481716,-0.002153,-0.015005,0.012742
9.491756,0.010563,-0.040666,0.010519
9.511806,0.007394,-0.022436,-0.003290
9.511806,0.007394,-0.022436,-0.003290
9.521846,-0.022482,-0.048085,0.021075
9.531856,-0.013856,-0.003184,0.005288
9.541896,-0.009711,-0.050222,0.012554
9.551906,-0.023441,-0.006407,0.015928
9.561955,-0.006470,-0.033136,0.010508
9.582005,-0.000097,-0.039549,0.007290
9.582005,-0.000097,-0.039549,0.007290
9.592015,-0.001113,-0.023547,0.011636
9.602055,0.001045,-0.018249,0.019144
9.612065,-0.021359,-0.021340,0.010522
9.622105,0.010555,-0.041719,0.007309
9.632115,-0.000030,-0.020372,0.016995
9.662205,-0.016023,-0.020299,0.012678
9.662205,-0.016023,-0.020299,0.012678
9.672246,0.026578,-0.027883,0.006351
9.682256,-0.003180,-0.006508,0.023461
9.692296,0.017989,-0.049199,0.003022
9.702306,-0.014923,-0.011795,0.020199
9.722356,-0.023547,-0.044853,0.015746
9.722356,-0.023547,-0.044853,0.015746
9.732396,0.009535,-0.025702,0.008450
9.742406,0.004223,-0.025740,0.020186
9.752446,-0.000031,-0.016059,0.008470
9.762486,0.012711,-0.036417,0.013750
9.772496,-0.023526,-0.038455,0.017913
9.802586,-0.019265,-0.024460,-0.008715
9.802586,-0.019265,-0.024460,-0.008715
9.812596,-0.023507,-0.030975,0.016880
9.822636,0.000982,-0.029900,-0.001207
9.832646,-0.020427,-0.066161,0.002835
9.842686,-0.044823,-0.028749,0.012559
9.862736,-0.022425,-0.017024,0.001994
9.872777,-0.006525,-0.049119,0.002954
9.882787,-0.025640,-0.037426,0.027526
9.892827,0.007363,-0.030954,-0.008672
9.902837,-0.020303,-0.033161,0.025424
9.912877,0.011666,-0.019246,-0.003263
9.932927,-0.009615,-0.011746,0.006327
9.942937,0.025520,-0.025749,0.007426
9.952977,-0.003272,-0.038531,0.020105
9.962987,-0.010743,-0.035242,0.007281
9.973027,0.012665,-0.053509,0.014737
9.983067,0.001072,-0.007565,0.018127
10.003117,-0.001113,-0.028932,0.021224
10.013127,0.007392,-0.027816,0.005230
10.023167,-0.004355,-0.041706,0.014746
10.033177,-0.020282,-0.018145,0.011608
10.043217,-0.010723,-0.026689,0.005185
10.053227,-0.017086,-0.021384,0.016943
10.073277,-0.035174,-0.007417,0.011618
10.073277,-0.035174,-0.007417,0.011618
10.083318,-0.008635,-0.037330,-0.004473
10.093358,-0.052240,-0.012706,0.012614
10.103368,-0.021413,-0.033016,-0.004488
10.113408,-0.039567,-0.052236,0.007121
10.123418,-0.042676,-0.015880,-0.000193
10.143468,-0.031994,-0.020298,0.023316
10.153508,0.001978,-0.050149,-0.010914
10.163518,-0.030966,-0.032034,0.020059
10.173558,0.015886,-0.036356,-0.001196
10.183568,-0.002235,-0.047063,0.016863
10.193608,-0.003284,-0.038496,0.012627
10.213658,-0.010668,-0.018247,0.026590
10.223698,0.021185,-0.047053,-0.001232
10.233708,0.014806,-0.046005,0.007301
10.243748,-0.014960,-0.023527,0.016939
10.253758,0.017015,-0.017173,0.006375
10.263798,0.009518,-0.037500,0.019077
10.283849,0.006278,-0.052435,0.017929
10.283849,0.006278,-0.052435,0.017929
10.293858,-0.004223,0.010658,0.007516
10.303899,-0.006538,-0.052308,-0.000266
10.313939,-0.016023,-0.028919,0.028661
10.323949,0.000982,-0.021281,-0.017189
10.333989,-0.016039,-0.029946,0.020110
10.354039,0.015867,-0.042759,-0.002295
10.364049,-0.034065,0.003213,0.021285
10.374089,0.003057,-0.045886,-0.009823
10.384099,0.003205,-0.004343,0.012807
10.394139,-0.001105,-0.017109,0.005257
10.404149,0.012689,-0.037424,0.000926
10.424229,0.006339,-0.026775,0.011641
10.434239,0.007480,0.006378,0.001119
10.444279,0.006330,-0.022437,-0.002225
10.454289,-0.001102,-0.022504,0.016982
10.464330,0.012743,-0.012821,-0.007503
10.474339,-0.020307,-0.033146,0.022220
10.494389,0.006312,-0.035308,0.009464
10.504430,-0.019244,-0.028832,0.012629
10.514439,0.002058,-0.026705,-0.000121
10.524480,-0.004323,-0.034266,0.022258
10.534520,0.014825,-0.032061,-0.005452
10.544530,0.005304,-0.020404,0.020214
10.564594,0.004174,-0.040666,0.014774
10.564594,0.004174,-0.040666,0.014774
10.574634,0.019116,-0.026776,0.003131
10.584644,0.006381,-0.009673,0.008518
10.594684,0.012758,-0.021486,0.018093
10.604694,0.011686,-0.013921,-0.000034
10.614734,0.020146,-0.042823,0.008399
10.634784,0.024442,-0.028939,0.005272
10.644824,0.002097,-0.020363,0.013796
10.654834,0.001022,-0.010637,-0.009661
10.664875,0.005290,-0.022515,0.014863
10.674884,0.007404,-0.018159,-0.004338
10.684925,-0.020291,-0.021348,0.011593
10.704975,-0.006393,-0.005369,0.010639
10.704975,-0.006393,-0.005369,0.010639
10.714984,0.012763,-0.015038,0.009578
10.725025,0.011703,-0.012899,0.009585
10.735034,0.009527,-0.028911,0.009503
10.745075,0.021280,-0.009650,-0.006396
10.755115,-0.013833,-0.006489,0.026636
10.775165,-0.017144,-0.042743,0.016842
10.785175,-0.017107,-0.019162,-0.001206
10.795215,0.021274,-0.012864,-0.004275
10.805225,-0.003220,-0.018230,0.018064
10.815265,0.012749,-0.014993,-0.000036
10.825275,-0.000128,-0.049145,0.004040
10.845325,0.007415,-0.016038,-0.001124
10.855365,-0.000028,-0.020377,0.018063
10.865406,0.007338,-0.039492,-0.009780
10.875415,-0.010827,-0.065139,0.006071
10.885456,-0.007514,-0.021349,0.003083
10.895465,0.024408,-0.038525,-0.000115
10.905506,-0.003273,-0.036375,0.015842
10.915515,0.024378,-0.040585,-0.016148
10.925556,0.003137,-0.035368,0.024410
10.935565,0.018035,-0.025649,-0.008617
10.945606,0.011607,-0.049218,0.011550
10.955615,0.010630,-0.010719,0.001047
10.965656,0.024427,-0.029966,-0.003279
10.975696,-0.002151,-0.036556,0.053232
10.985706,0.024415,-0.015927,-0.036327
10.995746,-0.016129,-0.052282,0.000776
11.005756,-0.011350,0.031170,0.191326
11.015796,0.085147,-0.010678,-0.058567
11.025806,-0.087296,-0.008649,0.081970
11.035846,0.004242,-0.009640,0.003171
11.055896,-0.038181,0.022151,0.084388
11.055896,-0.038181,0.022151,0.084388
11.065906,0.055251,-0.040574,-0.039563
11.075946,-0.028792,-0.016017,0.019072
11.085987,-0.001069,0.006477,-0.013859
11.095996,0.004183,-0.036384,0.012658
11.106037,0.000003,0.001068,0.000005
11.126087,-0.013786,0.010598,0.026717
11.136096,0.042560,-0.020379,-0.010661
11.146137,0.006356,-0.016055,0.003146
11.156146,-0.002142,-0.008577,0.008499
11.166187,0.052189,-0.007600,-0.009506
11.176197,0.005326,-0.005392,0.007467
11.206287,0.025529,-0.029008,0.019161
11.206287,0.025529,-0.029008,0.019161
11.216327,-0.018092,0.004285,0.009584
11.226337,0.041439,-0.028817,-0.032068
11.236377,-0.005358,-0.023588,0.023374
11.246387,-0.029936,-0.029770,-0.007701
11.266437,-0.017021,0.007495,0.007466
11.276477,-0.023565,-0.034022,-0.016249
11.286487,0.013782,-0.033206,0.011631
11.296527,-0.038347,0.010829,-0.005396
11.306537,0.016888,-0.049084,-0.020482
11.316577,-0.025531,0.006395,0.020256
11.336627,-0.020307,-0.023454,0.005174
11.346668,0.011687,-0.007463,-0.010685
11.356677,-0.018187,-0.026655,0.003028
11.366718,0.007442,-0.009661,0.005316
11.376728,0.015976,-0.001095,-0.005302
11.386768,-0.010774,-0.042688,0.000836
11.406818,-0.017027,0.001052,0.014913
11.416828,0.031834,-0.040594,-0.019332
11.426868,-0.031886,0.020293,0.021372
11.436908,-0.000173,-0.051159,-0.021607
11.446918,-0.008603,-0.034202,0.011565
11.456958,-0.037242,0.018241,0.007461
11.477008,-0.055399,-0.005276,0.024391
11.477008,-0.055399,-0.005276,0.024391
11.487018,-0.005471,-0.043697,-0.015177
11.497058,-0.021357,-0.020267,0.009459
11.507068,-0.010684,-0.010655,0.002056
11.517108,-0.018216,-0.033027,-0.004479
11.527118,-0.014956,-0.020308,0.013749
11.547199,0.003087,-0.039519,-0.001247
11.557208,-0.027668,0.008573,0.012783
11.567278,0.010546,-0.038460,-0.004426
11.577288,-0.009661,-0.030989,0.010509
11.587328,-0.032009,-0.013789,0.001983
11.597338,0.011646,-0.027799,-0.001168
11.627428,-0.021379,-0.027737,0.008355
11.627428,-0.021379,-0.027737,0.008355
11.637438,-0.020280,-0.013843,0.005220
11.647478,-0.007591,-0.046960,-0.001311
11.657518,-0.021335,-0.012796,0.010563
11.667528,-0.020360,-0.041599,0.002952
11.677568,-0.011817,-0.028750,-0.009783
11.687578,-0.038400,-0.026705,0.027541
11.697618,0.009548,-0.003124,-0.023489
11.707628,-0.040594,-0.048047,0.025298
11.717668,-0.041675,-0.043685,0.007156
11.727678,-0.009633,-0.009535,-0.009686
11.737718,-0.024511,-0.009623,0.019115
11.757768,-0.015059,-0.047988,-0.004541
11.767809,-0.061842,-0.019108,0.017898
11.777819,0.001031,-0.008511,-0.007515
11.787859,-0.025586,-0.005282,0.005245
11.797869,-0.044836,-0.027631,0.001882
11.807909,-0.021401,-0.035208,0.007252
11.827959,-0.052246,-0.015920,0.014735
11.837969,0.001020,-0.014939,-0.003272
11.848009,-0.037338,-0.021313,0.015819
11.858019,-0.033030,-0.001001,0.008450
11.868059,0.018001,-0.028771,-0.025723
11.878099,-0.086236,0.013986,0.037215
11.898149,-0.035180,0.002296,-0.009700
11.898149,-0.035180,0.002296,-0.009700
11.908159,-0.067116,-0.006336,0.030763
11.918199,0.023333,-0.014794,-0.049143
11.928209,-0.087192,0.037343,0.067233
11.938249,-0.007521,-0.013788,-0.015041
11.948259,-0.034123,-0.013838,0.013727
11.968309,0.025460,-0.029869,-0.024640
11.978350,-0.049965,0.028845,0.032045
11.988390,0.000966,-0.029850,-0.011889
11.998400,-0.023515,-0.022330,-0.004443
12.008440,-0.052144,0.020384,0.015976
12.018450,0.029805,-0.010751,-0.005310
12.038500,-0.023461,-0.002034,-0.005416
12.048540,-0.002145,-0.011801,0.012757
12.058550,-0.030862,0.011802,0.009584
12.068590,0.019128,-0.019275,-0.002175
12.078600,-0.048989,0.004350,0.016977
12.088640,0.015960,-0.011814,0.003193
12.108690,-0.009589,-0.006442,0.013830
12.118730,-0.014894,0.011811,-0.003190
12.128740,0.008487,-0.017140,0.005283
12.138780,-0.042608,0.005448,0.006317
12.148790,-0.007490,-0.014962,0.007386
12.158831,-0.013864,-0.004237,0.002078
12.178881,-0.029823,0.007577,-0.001115
12.188890,-0.011773,-0.019195,0.002013
12.198931,-0.060769,-0.010517,0.007260
12.208971,-0.000105,-0.028753,-0.017228
12.218981,-0.039373,0.008550,0.025569
12.229021,-0.000026,-0.003148,-0.011765
12.249071,-0.054273,0.019303,0.020237
12.259081,0.031849,-0.030947,-0.026764
12.269121,-0.050056,-0.004261,0.031888
12.279131,-0.006319,0.027787,0.000114
12.289171,0.035098,-0.024656,-0.004292
12.299181,-0.036124,0.028845,0.022469
12.319261,-0.005278,0.000933,0.032036
12.329271,-0.020194,0.025742,-0.009548
12.339311,0.036243,-0.000138,0.004372
12.349321,-0.009544,0.010650,0.012843
12.349321,-0.009544,0.010650,0.012843
12.369371,-0.006416,-0.009606,0.003141
12.389421,0.009603,0.001011,0.005372
12.399462,-0.012754,0.009623,0.006420
12.409471,0.026555,-0.025656,-0.012867
12.419512,-0.030791,0.023428,0.035277
12.429552,0.034049,-0.011782,-0.015985
12.439562,-0.003249,-0.017061,-0.003294
12.459612,0.028706,-0.024646,-0.002174
12.469652,0.005304,-0.009634,0.001037
12.479662,-0.022400,-0.005257,-0.002223
12.489702,0.036225,-0.008697,0.007536
12.489702,0.036225,-0.008697,0.007536
12.509752,-0.027786,-0.025525,-0.003402
12.529802,-0.036169,0.023602,0.002148
12.539842,0.055215,-0.064160,-0.020447
12.539842,0.055215,-0.064160,-0.020447
12.549852,-0.056395,0.013895,0.036229
12.559913,0.021153,-0.039411,-0.036447
12.579963,-0.069204,0.017231,0.016982
12.589972,0.085122,-0.051532,-0.001077
12.600013,-0.052240,-0.006243,0.000894
12.610022,0.013716,-0.042691,-0.015119
12.620063,-0.010664,-0.013950,0.021269
12.630072,0.018095,-0.002139,-0.011710
12.640113,-0.015007,-0.031994,0.000875
12.650122,0.001024,-0.010642,-0.008593
12.690253,-0.008569,-0.015996,0.000969
12.690253,-0.008569,-0.015996,0.000969
12.700263,0.024518,-0.000095,0.003272
12.710303,-0.027712,-0.000983,0.000987
12.720313,0.033009,-0.009703,-0.003159
12.750403,-0.045798,0.010823,0.000993
12.750403,-0.045798,0.010823,0.000993
12.760413,-0.006402,-0.004266,0.003167
12.770453,0.002170,0.019261,-0.009517
12.780494,-0.045815,0.002259,0.005225
12.790503,-0.000003,0.000010,-0.002136
12.810553,-0.025517,0.021432,0.002167
12.810553,-0.025517,0.021432,0.002167
12.820594,0.031938,-0.004300,-0.015955
12.830603,-0.064924,0.024703,0.014892
12.840644,0.003197,0.012916,-0.023431
12.850653,0.025606,0.012757,-0.005210
12.860694,-0.071257,0.035302,0.036289
12.890784,0.001085,-0.000064,0.012821
12.890784,0.001085,-0.000064,0.012821
12.900794,0.051114,-0.007566,-0.015918
12.910834,-0.076622,0.038664,0.006380
12.920844,0.062844,-0.009780,-0.007350
12.930884,-0.003155,0.017112,-0.003132
12.960944,0.041403,-0.025472,-0.061962
12.960944,0.041403,-0.025472,-0.061962
12.970984,-0.070192,0.024528,0.055469
12.980994,-0.108726,-0.023298,0.032704
12.991034,0.062738,-0.030987,-0.039497
13.001075,-0.099034,0.011902,0.035034
13.031134,-0.122569,-0.009289,0.015640
13.031134,-0.122569,-0.009289,0.015640
13.041175,0.057317,-0.059763,-0.048194
13.051184,-0.106528,0.005569,0.024301
13.061225,0.040307,-0.058766,-0.021531
13.071235,-0.015016,-0.037354,0.005123
13.101325,-0.112993,-0.016811,0.018836
13.101325,-0.112993,-0.016811,0.018836
13.111365,0.065866,-0.072788,-0.009776
13.121375,-0.010814,-0.054409,-0.004560
13.131415,-0.032113,-0.051162,0.000737
13.141425,0.022222,-0.057736,-0.001280
13.161475,-0.004402,-0.056637,0.010402
13.171515,0.003091,-0.039529,0.000890
13.181525,0.073346,-0.073951,0.005194
13.191565,-0.057608,-0.024416,0.008271
13.201575,0.053044,-0.088801,-0.002410
13.211615,-0.012869,-0.035256,0.011548
13.241706,-0.017197,-0.051195,-0.002426
13.241706,-0.017197,-0.051195,-0.002426
13.251716,-0.006554,-0.061954,0.007166
13.261756,-0.012873,-0.025548,-0.008702
13.271766,0.048872,-0.057837,0.001998
13.281806,-0.035226,-0.025567,0.010464
13.311866,-0.030988,-0.025500,-0.006616
13.311866,-0.030988,-0.025500,-0.006616
13.321906,0.040403,-0.034295,-0.002187
13.331946,-0.051159,-0.001985,0.003054
13.341956,0.025471,-0.035289,-0.007574
13.351996,-0.052170,0.015080,0.008473
13.372046,0.008488,-0.018218,0.007415
13.382056,-0.080892,0.025772,0.025535
13.392096,0.086204,-0.028968,-0.030877
13.402106,-0.046845,0.009688,0.015940
13.412146,-0.022430,-0.012702,-0.008668
13.422156,0.076712,-0.012017,0.004428
13.452247,-0.030857,0.006402,0.022377
13.452247,-0.030857,0.006402,0.022377
13.462287,-0.013895,-0.008448,-0.010761
13.472297,0.063892,-0.020498,0.000080
13.482337,-0.105444,0.016281,0.016877
13.492347,0.087314,-0.019416,-0.019078
13.522437,0.002011,-0.035173,-0.016184
13.522437,0.002011,-0.035173,-0.016184
13.532447,-0.074579,0.003390,0.011560
13.542487,0.000996,-0.014863,-0.019295
13.552527,-0.003277,-0.027746,-0.002277
13.562559,-0.109736,0.008844,0.011489
13.592649,-0.047004,-0.037205,-0.004579
13.592649,-0.047004,-0.037205,-0.004579
13.602659,-0.027757,-0.014846,-0.003352
13.612699,0.004168,-0.028797,-0.010807
13.622709,-0.080009,-0.022126,-0.008872
13.632749,-0.027831,-0.037232,-0.012003
13.662840,0.044588,-0.052373,-0.021489
13.662840,0.044588,-0.052373,-0.021489
13.672850,-0.067102,0.005467,0.019068
13.682890,-0.029000,-0.058445,-0.042017
13.692900,-0.009584,-0.012921,0.028754
13.702940,-0.150127,0.037714,0.031810
13.733000,-0.072602,-0.045680,-0.001485
13.733000,-0.072602,-0.045680,-0.001485
13.743040,0.004202,-0.025674,0.006299
13.753050,-0.088367,0.011837,0.041472
13.763090,0.030747,-0.044832,-0.025764
13.773130,-0.009535,-0.009843,0.055474
13.793180,-0.007525,-0.022392,-0.002263
13.803190,-0.075723,-0.018982,0.000769
13.813230,0.016988,-0.023550,-0.000064
13.823240,-0.039529,-0.032968,-0.002402
13.833280,-0.010769,-0.035161,-0.009810
13.843290,-0.014948,-0.016026,0.011633
13.863340,-0.020285,-0.012749,-0.000116
13.863340,-0.020285,-0.012749,-0.000116
13.873381,-0.005397,-0.023467,-0.002262
13.883390,-0.013931,-0.030955,0.006224
13.893431,-0.025661,-0.029819,-0.000212
13.903471,-0.010677,-0.008524,0.003135
13.913481,0.014828,-0.032071,-0.003315
13.933531,0.006276,-0.035192,-0.015104
13.943571,-0.026737,-0.040555,0.012553
13.953581,-0.058550,0.011821,0.024463
13.963621,0.027554,-0.050222,-0.012980
13.973631,-0.047906,-0.003250,0.042581
13.983671,-0.012913,-0.043733,-0.002379
14.003721,-0.058539,-0.001141,0.055380
14.013761,0.002001,-0.044835,-0.005548
14.023771,-0.003195,-0.022618,0.042613
14.033811,-0.013975,-0.040511,-0.005571
14.043821,0.025515,-0.033275,0.018073
14.053862,-0.043647,-0.016176,0.062827
14.073912,0.059664,-0.028137,0.037419
14.083921,-0.027724,-0.016025,0.020144
14.093962,0.040416,-0.041877,0.020210
14.103971,-0.012925,-0.052312,0.005058
14.114012,-0.027853,-0.056551,0.008201
14.124052,-0.015995,-0.012849,0.018055
14.154112,-0.068262,-0.025469,0.012509
14.154112,-0.068262,-0.025469,0.012509
14.164152,-0.011757,-0.032172,0.036135
14.174162,-0.004264,-0.021527,0.038342
14.184202,0.004302,-0.009833,0.043762
14.194212,0.040572,-0.013286,0.071620
14.224302,0.004200,-0.039669,0.029734
14.224302,0.004200,-0.039669,0.029734
14.234342,0.035116,-0.021483,0.002132
14.244352,0.040399,-0.049362,0.022311
14.254393,0.010616,-0.024678,0.017004
14.264402,0.042497,-0.053570,0.007342
14.284452,0.019131,-0.018207,-0.002170
14.294493,0.021208,-0.052509,0.023311
14.304502,0.010642,-0.011832,0.010656
14.314543,0.040370,-0.046037,-0.003311
14.324552,0.000011,-0.011884,0.028786
14.334593,0.040420,-0.028961,-0.001093
14.354643,0.034031,-0.028960,0.003162
14.364683,0.029770,-0.038649,0.022332
14.374693,0.028697,-0.028928,-0.000058
14.384733,0.026564,-0.036457,0.012720
14.394743,0.022336,-0.026857,0.018094
14.404783,0.018007,-0.044947,0.007315
14.424833,0.004169,-0.037417,0.005176
14.434843,-0.003272,-0.034224,0.012648
14.444883,-0.003278,-0.029897,0.000918
14.454924,-0.007544,-0.038492,0.014752
14.464933,-0.003264,-0.027786,0.006269
14.474974,0.002048,-0.036367,0.010516
14.495024,0.013722,-0.054560,0.010462
14.505033,0.010610,-0.024658,0.012731
14.515074,0.026551,-0.032104,-0.004351
14.525083,0.016957,-0.044994,0.017994
14.535124,0.023388,-0.024664,0.005289
14.545133,0.027631,-0.032153,0.005265
14.565246,0.013816,-0.023620,0.017018
14.575256,0.023394,-0.021450,0.003168
14.585296,0.028609,-0.065272,0.007248
14.595306,-0.014954,-0.021391,0.016949
14.605346,0.009528,-0.024604,0.002046
14.615356,0.002063,-0.032105,0.012672
14.635406,-0.006509,-0.049170,0.013636
14.645446,0.002102,-0.010686,-0.000045
14.655456,-0.012854,-0.022375,-0.002278
14.665496,-0.012829,-0.020300,0.010551
14.675537,-0.004354,-0.038477,0.009420
14.685546,0.006297,-0.038491,0.005176
14.705596,0.011687,-0.020389,0.012754
14.715637,0.011595,-0.049183,0.004072
14.725646,0.011691,-0.017170,0.009565
14.735687,0.014863,-0.024641,0.006334
14.745697,0.018063,-0.028969,0.015936
14.755737,0.027603,-0.040681,0.002020
14.775787,0.012754,-0.022549,0.017020
14.785827,0.018048,-0.029996,0.007385
14.795837,0.010562,-0.032047,-0.005463
14.805877,0.015870,-0.051388,0.015824
14.815887,0.028743,-0.015070,0.005349
14.825927,0.021280,-0.017192,0.007455
14.845977,0.028682,-0.036418,0.003112
14.855987,0.019097,-0.035334,0.006295
14.866027,0.023354,-0.036406,0.004165
14.876037,0.033011,-0.015099,0.008566
14.886077,0.029811,-0.021542,0.018140
14.896087,0.035067,-0.048257,0.018028
14.916168,0.003153,-0.020336,0.007390
14.926177,0.027700,-0.009752,0.010713
14.936218,0.021237,-0.035367,0.011642
14.946228,0.008488,-0.012833,-0.002174
14.956268,-0.002193,-0.018112,-0.007569
14.966278,-0.022441,-0.024515,0.005163
14.976318,-0.013932,-0.033106,0.009419
14.986328,0.002131,0.004305,-0.008519
14.996368,-0.039397,0.005397,0.014872
15.006378,-0.044820,-0.024452,0.007238
15.016418,-0.009619,-0.013887,0.007385
15.026458,-0.014968,-0.010575,-0.011842
15.036468,-0.014911,-0.002138,0.010631
15.056518,-0.002238,-0.036282,-0.004451
15.066558,-0.007488,-0.011738,0.003128
15.076568,-0.009621,-0.006341,-0.007534
15.086608,-0.012794,-0.001021,-0.001108
15.096618,-0.013876,-0.008509,0.002058
15.106658,-0.013952,-0.034119,-0.002336
15.126708,-0.023467,-0.004170,-0.005426
15.126708,-0.023467,-0.004170,-0.005426
15.136749,-0.029826,0.010817,-0.008577
15.146759,-0.028795,-0.003080,-0.006503
15.156799,-0.024620,-0.032976,-0.010906
15.166809,-0.017108,-0.015928,-0.007600
15.176849,-0.022368,0.007568,-0.004299
15.196899,-0.014970,-0.017033,-0.001190
15.206909,-0.002145,-0.005338,0.001037
15.216949,0.006334,-0.023525,0.002043
15.226959,0.008509,-0.011820,0.009582
15.236999,0.009605,0.001006,0.006441
15.247039,0.007392,-0.026738,0.003099
15.267089,-0.001133,-0.026715,0.004143
15.277099,-0.006434,-0.014935,0.000980
15.287139,-0.012787,-0.002120,0.005296
15.297149,-0.005334,-0.010738,0.015958
15.307189,-0.000118,-0.045946,0.005123
15.317199,-0.003206,-0.008579,0.009564
15.337249,-0.006431,-0.022487,0.016967
15.347290,-0.001095,-0.011754,0.002078
15.357330,0.002014,-0.047031,0.007261
15.367340,0.006330,-0.029978,0.011626
15.377380,0.009551,-0.019289,0.007413
15.387390,0.011698,-0.013962,0.008512
15.407440,0.013755,-0.039584,0.005192
15.417480,0.016928,-0.044903,-0.001234
15.427490,0.009503,-0.032064,-0.001194
15.437530,0.002038,-0.033103,-0.002287
15.447540,-0.001167,-0.036301,-0.001243
15.457580,-0.002250,-0.039476,-0.006602
15.477630,0.003101,-0.030945,-0.007615
15.477630,0.003101,-0.030945,-0.007615
15.487670,0.007340,-0.041653,-0.004450
15.497680,0.010526,-0.042706,-0.009787
15.507720,0.013756,-0.030969,-0.009722
15.517730,0.002042,-0.032040,-0.001214
15.527770,0.011622,-0.035265,-0.003339
15.547821,0.011592,-0.048095,-0.000195
15.557830,0.009512,-0.029938,0.000953
15.567867,0.005274,-0.023542,0.006312
15.577907,0.006286,-0.039534,-0.000170
15.587917,0.004150,-0.039512,-0.003380
15.597957,-0.010711,-0.023495,0.007337
15.618007,-0.013968,-0.041609,0.000833
15.628017,-0.019236,-0.018087,-0.001207
15.638057,-0.016107,-0.043733,-0.000251
15.648067,-0.022462,-0.030912,0.002996
15.658107,-0.016084,-0.031956,-0.006605
15.668117,-0.025677,-0.041617,0.010414
15.688197,-0.019286,-0.039471,0.004033
15.698207,-0.007554,-0.035227,0.001949
15.708247,-0.006494,-0.038445,0.004073
15.718257,-0.002221,-0.037411,0.008363
15.728297,-0.000099,-0.038466,0.004091
15.738307,0.001012,-0.020299,0.000975
15.758357,-0.000108,-0.042747,0.006207
15.768398,0.000980,-0.034202,0.005182
15.778407,-0.006442,-0.020295,0.005227
15.788448,-0.004347,-0.034190,0.006236
15.798488,-0.011823,-0.038428,0.004058
15.808498,-0.012880,-0.033064,-0.000192
15.828548,-0.020334,-0.028753,-0.003397
15.838588,-0.019253,-0.024495,-0.001237
15.848598,-0.020319,-0.020184,-0.008697
15.858638,-0.023493,-0.018094,0.003054
15.868648,-0.007513,-0.015969,-0.005437
15.878688,-0.004345,-0.028810,-0.002285
15.898738,0.004223,-0.012814,-0.003254
15.908748,0.002101,-0.012837,0.003150
15.918788,0.007418,-0.013892,-0.003250
15.928828,0.002084,-0.016016,-0.002206
15.938838,0.008522,-0.002169,0.001082
15.948879,-0.003245,-0.013842,-0.006484
15.968929,-0.011735,-0.004234,-0.000052
15.978938,-0.010657,0.001108,-0.001092
15.988979,-0.011713,0.003237,0.001051
15.998988,-0.005313,0.007508,-0.003184
16.009029,-0.009552,0.012831,0.003239
16.019038,-0.007392,0.024582,0.001164
16.039119,-0.018049,0.022460,0.005397
16.049129,-0.012706,0.029938,0.001175
16.059169,-0.014838,0.029945,0.001169
16.069179,-0.011637,0.031003,0.001183
16.079219,-0.020171,0.028900,0.000081
16.089229,-0.018017,0.036363,0.001190
16.099269,-0.021218,0.035306,0.001177
16.109279,-0.009491,0.037414,-0.000917
16.119319,0.001161,0.036321,-0.003030
16.129329,-0.015880,0.037414,0.003338
16.139369,-0.013760,0.035292,-0.000939
16.149410,-0.010551,0.037397,0.003352
16.159419,-0.008452,0.027799,-0.000960
16.179469,-0.003108,0.030965,0.003343
16.189510,-0.008460,0.027824,-0.006301
16.199519,-0.013801,0.019263,0.001121
16.209560,-0.017005,0.018215,-0.001029
16.219569,-0.008499,0.011790,-0.003172
16.229610,-0.008499,0.011790,-0.003172
16.249660,-0.005333,-0.002124,0.001043
16.259700,-0.014950,-0.007402,-0.005417
16.269710,-0.006419,-0.006367,-0.004321
16.279750,-0.000037,-0.011732,-0.003260
16.289760,-0.004321,-0.019194,-0.003307
16.299800,-0.010733,-0.025580,-0.003355
16.309810,-0.006475,-0.025579,-0.006548
16.309810,-0.006475,-0.025579,-0.006548
16.319850,0.000998,-0.021332,-0.006507
16.329860,-0.008621,-0.030912,-0.006579
16.339900,-0.007564,-0.033041,-0.008723
16.349910,0.002029,-0.031999,-0.009760
16.359950,0.004152,-0.035210,-0.009769
16.369991,-0.000108,-0.034128,-0.009776
16.410091,0.010524,-0.039467,-0.017249
16.420100,0.010524,-0.044806,-0.015147
16.420100,0.007315,-0.044806,-0.015147
16.430141,-0.002270,-0.040488,-0.018357
16.440151,0.010523,-0.037311,-0.021512
16.460201,0.003036,-0.045820,-0.023709
16.460201,0.003036,-0.045820,-0.023709
16.470241,0.007305,-0.041542,-0.027950
16.480281,0.009460,-0.034083,-0.025772
16.490291,0.016898,-0.038344,-0.033249
16.500331,0.001980,-0.039384,-0.029023
16.510341,-0.002294,-0.041490,-0.032249
16.540431,0.001968,-0.040421,-0.035437
16.540431,0.001968,-0.040421,-0.035437
16.550441,-0.003367,-0.039311,-0.040787
16.560516,0.000921,-0.034015,-0.034341
16.570526,0.007309,-0.031860,-0.042859
16.580566,0.000904,-0.038272,-0.037566
16.610657,0.001973,-0.036129,-0.039689
16.610657,0.001973,-0.036129,-0.039689
16.620666,0.006240,-0.031846,-0.044998
16.630707,0.016891,-0.035090,-0.043916
16.640717,0.011567,-0.030780,-0.048183
16.650757,0.015818,-0.035066,-0.048192
16.670807,0.015816,-0.032905,-0.053523
16.670807,0.015816,-0.032905,-0.053523
16.680817,0.019009,-0.035056,-0.052456
16.690857,0.012601,-0.039302,-0.053562
16.700867,-0.001274,-0.042425,-0.061092
16.710907,0.011537,-0.031762,-0.066348
16.720947,0.027511,-0.038237,-0.063129
16.751007,0.004038,-0.039158,-0.078154
16.751007,0.004038,-0.039158,-0.078154
16.761047,0.008300,-0.041323,-0.074947
16.771057,0.006141,-0.045537,-0.085656
16.781097,0.008281,-0.042340,-0.085634
16.791107,0.003996,-0.049797,-0.086750
16.821197,0.010383,-0.045485,-0.099530
16.821197,0.010383,-0.045485,-0.099530
16.831238,0.013577,-0.044407,-0.103789
16.841248,0.012507,-0.046545,-0.102734
16.851288,0.008234,-0.046500,-0.109155
16.861298,0.022094,-0.045483,-0.108044
16.891388,0.016764,-0.041153,-0.116584
16.891388,0.016764,-0.041153,-0.116584
16.901398,-0.008863,-0.051688,-0.129523
16.911438,0.006103,-0.035723,-0.128338
16.921448,0.014611,-0.036768,-0.139001
16.931488,-0.004606,-0.048453,-0.139110
16.951538,0.001800,-0.040968,-0.145466
16.951538,0.001800,-0.040968,-0.145466
16.961578,0.009260,-0.037758,-0.151839
16.971588,-0.001432,-0.044080,-0.162581
16.981628,0.001781,-0.041985,-0.156153
16.991638,0.012434,-0.038771,-0.165722
17.001678,0.008169,-0.038752,-0.166802
17.031738,0.014550,-0.036576,-0.179593
17.031738,0.014550,-0.036576,-0.179593
17.041779,0.013481,-0.036562,-0.181732
17.051819,0.026239,-0.048351,-0.181752
17.061829,0.028384,-0.040862,-0.185984
17.071869,0.032652,-0.038735,-0.187030
17.091919,0.033705,-0.038698,-0.195573
17.101929,0.027303,-0.044042,-0.190275
17.111969,0.068869,-0.037714,-0.201880
17.121979,0.055018,-0.040913,-0.193388
17.132019,0.032607,-0.065524,-0.167929
17.142029,0.066765,-0.049642,-0.162419
17.162109,0.091235,-0.048507,-0.193324
17.162109,0.091235,-0.048507,-0.193324
17.172119,0.072034,-0.039774,-0.220041
17.182159,0.066701,-0.037591,-0.226455
17.192169,0.063501,-0.040804,-0.222206
17.202209,0.066680,-0.042910,-0.230753
17.212219,0.077322,-0.042894,-0.241405
17.232269,0.079463,-0.041853,-0.237122
17.232269,0.079463,-0.041853,-0.237122
17.242310,0.064520,-0.068665,-0.203107
17.252319,0.088021,-0.041982,-0.215734
17.262360,0.079452,-0.054744,-0.221160
17.272400,0.094370,-0.044012,-0.242432
17.282410,0.063444,-0.030930,-0.277706
17.302460,0.085845,-0.017059,-0.290397
17.312500,0.082635,-0.018086,-0.296820
17.322510,0.025069,-0.028629,-0.286347
17.332550,0.077288,-0.026627,-0.293671
17.342560,0.044241,-0.020037,-0.309754
17.352600,0.067702,-0.006149,-0.326715
17.372650,0.035719,-0.004941,-0.334275
17.382690,0.077297,0.005658,-0.345861
17.392700,0.076226,0.006755,-0.351200
17.402740,0.022907,-0.002673,-0.353528
17.412750,0.076209,0.005733,-0.360818
17.422790,0.076218,0.013244,-0.368260
17.442841,0.078336,0.012204,-0.375737
17.442841,0.078336,0.012204,-0.375737
17.452850,0.053818,0.011221,-0.376878
17.462891,0.078320,0.013333,-0.388550
17.472900,0.076210,0.016503,-0.379995
17.482941,0.079409,0.022951,-0.390638
17.492981,0.064445,0.012361,-0.399275
17.513031,0.056999,0.017724,-0.399270
17.523041,0.054845,0.014573,-0.408905
17.533081,0.037799,0.018915,-0.412136
17.543091,0.062315,0.020982,-0.414195
17.553131,0.051608,0.007169,-0.421768
17.563176,0.032413,0.008339,-0.430361
17.583226,0.061182,0.007193,-0.433492
17.593266,0.049449,0.005106,-0.435670
17.603276,0.050489,-0.000202,-0.443170
17.613316,0.059001,-0.004491,-0.445303
17.623356,0.057945,-0.000211,-0.446354
17.633366,0.071779,-0.002341,-0.457008
17.653416,0.081333,-0.017334,-0.454916
17.653416,0.081333,-0.017334,-0.454916
17.663457,0.066427,-0.000097,-0.476240
17.673466,0.088825,-0.007762,-0.451645
17.683507,0.110081,-0.014107,-0.479390
17.693516,0.094121,-0.010907,-0.467669
17.703557,0.089841,-0.014072,-0.473037
17.723607,0.104756,-0.016256,-0.473006
17.733647,0.091942,-0.020446,-0.481607
17.743657,0.083424,-0.016136,-0.483746
17.753697,0.080198,-0.027883,-0.481674
17.763707,0.091938,-0.018279,-0.488006
17.773747,0.081250,-0.025690,-0.494480
17.793797,0.083389,-0.022488,-0.495527
17.793797,0.083389,-0.022488,-0.495527
17.803807,0.112161,-0.029030,-0.486933
17.813847,0.103640,-0.020403,-0.498666
17.823857,0.100407,-0.031051,-0.502998
17.833897,0.101489,-0.028949,-0.496576
17.843938,0.112165,-0.012884,-0.513562
17.863988,0.092940,-0.031007,-0.507291
17.873997,0.130256,-0.018242,-0.522083
17.884038,0.107865,-0.024602,-0.516834
17.894047,0.114206,-0.022300,-0.556329
17.904088,0.119612,-0.016097,-0.516761
17.914097,0.131282,-0.017041,-0.550916
17.934148,0.113081,-0.021031,-0.597986
17.934148,0.113081,-0.021031,-0.597986
17.944188,0.120572,-0.010381,-0.596847
17.954228,0.129112,-0.010449,-0.588278
17.964238,0.116348,-0.013723,-0.564828
17.974278,0.119564,-0.008404,-0.562658
17.984288,0.106775,-0.006211,-0.565887
18.004338,0.099268,-0.011425,-0.587297
18.014378,0.091840,-0.000732,-0.585131
18.024388,0.112103,0.003469,-0.583986
18.034428,0.106736,-0.007163,-0.590461
18.044438,0.088631,0.002548,-0.599011
18.054478,0.112084,0.002451,-0.594673
18.074528,0.108899,0.004577,-0.590399
18.084569,0.139756,-0.000746,-0.614908
18.094578,0.144015,-0.009364,-0.602119
18.104619,0.134436,-0.003988,-0.603188
18.114628,0.170666,-0.000852,-0.613755
18.124669,0.164246,-0.015832,-0.603162
18.144719,0.177021,-0.016907,-0.610609
18.144719,0.177021,-0.016907,-0.610609
18.154729,0.167439,-0.016906,-0.604226
18.164769,0.193037,-0.009508,-0.605188
18.174809,0.181269,-0.023333,-0.609559
18.184819,0.182355,-0.014783,-0.611652
18.194859,0.168451,-0.031820,-0.612839
18.224919,0.168441,-0.037175,-0.609660
18.224919,0.168441,-0.037175,-0.609660
18.234959,0.146002,-0.045539,-0.632194
18.244969,0.142837,-0.038089,-0.624690
18.255009,0.128945,-0.047625,-0.631183
18.265019,0.151306,-0.048709,-0.642877
18.275059,0.127878,-0.054079,-0.620534
18.285100,0.124638,-0.058244,-0.640859
18.295109,0.137418,-0.064719,-0.635513
18.305150,0.118202,-0.071019,-0.645210
18.315159,0.116077,-0.069954,-0.643075
18.325200,0.135223,-0.078514,-0.652676
18.335210,0.119216,-0.088094,-0.648493
18.345250,0.092554,-0.090108,-0.656053
18.355260,0.098938,-0.090093,-0.663513
18.365300,0.083981,-0.101781,-0.665746
18.375310,0.073347,-0.093203,-0.665735
18.385350,0.083990,-0.099656,-0.663600
18.395360,0.081832,-0.108182,-0.665783
18.405400,0.093518,-0.117796,-0.673273
18.425450,0.090342,-0.112466,-0.668984
18.435490,0.108451,-0.117880,-0.665755
18.445500,0.106327,-0.116820,-0.662551
18.455540,0.114845,-0.116823,-0.667869
18.465550,0.104210,-0.112552,-0.660400
18.475590,0.094536,-0.135959,-0.672288
18.485600,0.090411,-0.094372,-0.656080
18.495640,0.089291,-0.109279,-0.664699
18.505650,0.099950,-0.113626,-0.656144
18.515690,0.109542,-0.107194,-0.667838
18.525731,0.087150,-0.116783,-0.657263
18.535741,0.101037,-0.102925,-0.661432
18.545781,0.096782,-0.101858,-0.658234
18.565842,0.123432,-0.097653,-0.662413
18.575852,0.114896,-0.108365,-0.649669
18.585892,0.130892,-0.101984,-0.654935
18.595902,0.143689,-0.098817,-0.655953
18.605942,0.126653,-0.103125,-0.636793
18.615952,0.151163,-0.093497,-0.656976
18.625992,0.159683,-0.095660,-0.656962
18.636032,0.156495,-0.105372,-0.633516
18.646042,0.173464,-0.079312,-0.735895
18.656082,0.173581,-0.093686,-0.632346
18.666092,0.167089,-0.105205,-0.676215
18.676132,0.209671,-0.080411,-0.753960
18.686142,0.181047,-0.101266,-0.615270
18.706192,0.162822,-0.079328,-0.725242
18.716232,0.191711,-0.088395,-0.634407
18.726242,0.168154,-0.103052,-0.680475
18.736283,0.182117,-0.081895,-0.647221
18.746323,0.167200,-0.085091,-0.638732
18.756333,0.171388,-0.096716,-0.667617
18.766373,0.146957,-0.082895,-0.637709
18.776383,0.172521,-0.078620,-0.655778
18.786423,0.182032,-0.085934,-0.696379
18.796433,0.144843,-0.076480,-0.637685
18.806473,0.173587,-0.073238,-0.665364
18.816483,0.162901,-0.075269,-0.680358
18.826523,0.137437,-0.058316,-0.634415
18.846573,0.165138,-0.054064,-0.649273
18.856613,0.151297,-0.055142,-0.637566
18.866623,0.159666,-0.047133,-0.756077
18.876663,0.174685,-0.041027,-0.702596
18.886673,0.157721,-0.038021,-0.649218
18.896713,0.143849,-0.034691,-0.666332
18.916763,0.120451,-0.016460,-0.666310
18.926773,0.138481,-0.024855,-0.710097
18.936814,0.133217,-0.009962,-0.694018
18.946823,0.111935,-0.006770,-0.676970
18.956864,0.139656,-0.007969,-0.668353
18.966904,0.143951,-0.002699,-0.656566
18.976914,0.108781,-0.005818,-0.650269
18.986954,0.139650,-0.002563,-0.682215
18.996964,0.138679,0.013297,-0.647959
19.007004,0.135473,0.006870,-0.641589
19.017014,0.154650,0.000369,-0.635158
19.027054,0.150392,0.008982,-0.646879
19.037064,0.114173,0.006888,-0.630966
19.057114,0.124856,0.017548,-0.634091
19.067154,0.154691,0.008857,-0.623367
19.077194,0.163184,-0.000762,-0.627662
19.087204,0.132294,0.003590,-0.623454
19.097244,0.138680,0.000366,-0.623452
19.107254,0.162157,0.009891,-0.621205
19.117294,0.154699,0.001291,-0.604175
19.127304,0.147204,0.000348,-0.625565
19.137345,0.146159,-0.002948,-0.605287
19.147354,0.162136,-0.001892,-0.613784
19.157395,0.146132,-0.021174,-0.590418
19.167404,0.157883,-0.002986,-0.605255
19.177445,0.152549,-0.008339,-0.598886
19.197495,0.144023,-0.009390,-0.596778
19.207535,0.148355,0.007613,-0.581730
19.217545,0.146143,-0.015824,-0.592529
19.227585,0.119534,-0.006157,-0.586148
19.237595,0.134494,0.010907,-0.591367
19.247635,0.128044,-0.016904,-0.577630
19.257645,0.129136,-0.000833,-0.589301
19.267685,0.106799,0.001254,-0.563716
19.277695,0.128077,0.004535,-0.594619
19.287735,0.110007,0.004442,-0.562623
19.297745,0.106771,-0.004045,-0.572286
19.307785,0.128136,0.011889,-0.568947
19.317826,0.134546,0.010745,-0.557185
19.347885,0.096192,0.020516,-0.564722
19.357926,0.085525,0.010884,-0.553047
19.367935,0.100456,0.011883,-0.548728
19.377976,0.100459,0.012951,-0.548723
19.387985,0.072759,0.019469,-0.553041
19.398026,0.096217,0.017206,-0.542305
19.408035,0.083412,0.019450,-0.556217
19.418076,0.049337,0.019464,-0.536015
19.428116,0.083416,0.017283,-0.549818
19.438126,0.087704,0.013959,-0.527389
19.448166,0.070657,0.021536,-0.537014
19.458176,0.091990,0.024645,-0.531599
19.478226,0.125071,0.033026,-0.519718
19.488266,0.090926,0.016024,-0.514552
19.498276,0.104807,0.025596,-0.515536
19.508316,0.146396,0.032926,-0.513250
19.518326,0.135731,0.022210,-0.498375
19.528366,0.100553,0.025579,-0.509139
19.538407,0.141103,0.037139,-0.497222
19.548416,0.145361,0.030677,-0.488695
19.558457,0.094175,0.027700,-0.501669
19.568503,0.146442,0.037091,-0.490798
19.578544,0.133667,0.040317,-0.486545
19.588553,0.127260,0.037144,-0.488714
19.598594,0.126239,0.044547,-0.472659
19.618644,0.137941,0.034882,-0.469468
19.628654,0.103862,0.049989,-0.479104
19.638694,0.140147,0.058339,-0.462941
19.648734,0.148654,0.046524,-0.454428
19.658744,0.127340,0.046588,-0.453418
19.668784,0.113496,0.055212,-0.460893
19.678794,0.129508,0.054006,-0.442695
19.688834,0.129485,0.047614,-0.445930
19.698844,0.114597,0.051868,-0.432064
19.708884,0.111404,0.051863,-0.428869
19.718894,0.147658,0.054924,-0.423413
19.728934,0.142318,0.048513,-0.419185
19.738944,0.122097,0.050639,-0.403208
19.759025,0.130618,0.047398,-0.401063
19.769034,0.149860,0.054694,-0.376406
19.779075,0.118922,0.051657,-0.390393
19.789084,0.122147,0.049404,-0.367962
19.799125,0.144528,0.048259,-0.366838
19.809134,0.130683,0.043961,-0.351941
19.819175,0.109390,0.053652,-0.354091
19.829185,0.145629,0.040603,-0.329483
19.839225,0.162657,0.028775,-0.324151
19.849235,0.132827,0.037450,-0.331670
19.859275,0.150977,0.040525,-0.316650
19.869315,0.145613,0.015878,-0.295418
19.879325,0.140284,0.022359,-0.307152
19.899375,0.134948,-0.004535,-0.262429
19.909415,0.115833,0.033011,-0.284737
19.919425,0.135006,0.014673,-0.259133
19.929465,0.071022,-0.001164,-0.254044
19.939475,0.083842,0.019167,-0.271004
19.949515,0.077503,0.011469,-0.219783
19.959525,0.094485,-0.003441,-0.240103
19.969565,0.081723,0.006206,-0.239025
19.979606,0.074331,0.007091,-0.195244
19.989615,0.046524,-0.016212,-0.216795
19.989615,0.046524,-0.016212,-0.216795
20.009665,0.067919,-0.001452,-0.191029
20.009665,0.067919,-0.001452,-0.191029
20.029716,0.063689,0.001690,-0.175003
20.049766,0.058353,-0.004736,-0.167571
20.059806,0.029567,-0.009997,-0.164470
20.069816,0.038122,-0.003653,-0.156939
20.069816,0.038122,-0.003653,-0.156939
20.079856,0.024227,-0.015329,-0.162374
20.089896,0.016760,-0.024982,-0.148554
20.099906,0.017852,-0.026145,-0.129328
20.129996,0.006126,-0.034716,-0.115514
20.129996,0.006126,-0.034716,-0.115514
20.140006,0.036996,-0.035773,-0.138935
20.150046,0.013650,-0.016631,-0.105794
20.160056,0.028450,-0.048611,-0.128337
20.170096,-0.000279,-0.047591,-0.098502
20.190146,0.025277,-0.051911,-0.105929
20.190146,0.025277,-0.051911,-0.105929
20.200187,0.057383,-0.024425,-0.068323
20.210196,0.009336,-0.047693,-0.083520
20.220237,0.008305,-0.039182,-0.076006
20.230247,-0.016174,-0.029516,-0.070686
20.240287,0.015782,-0.038184,-0.066366
20.270347,-0.007645,-0.040324,-0.049350
20.270347,-0.007645,-0.040324,-0.049350
20.280387,-0.044931,-0.033796,-0.049422
20.290397,0.011609,-0.025527,-0.029999
20.300437,0.003017,-0.037140,-0.052510
20.310447,-0.021428,-0.029737,-0.020496
20.330527,-0.015023,-0.025481,-0.021526
20.330527,-0.015023,-0.025481,-0.021526
20.340537,0.011587,-0.034075,-0.028971
20.350577,-0.023550,-0.030838,-0.011961
20.360587,0.005233,-0.032030,-0.005478
20.370627,-0.022510,-0.029683,-0.031181
20.380637,-0.042638,-0.007383,0.009461
20.420737,-0.010735,-0.018034,-0.018275
20.420737,-0.010735,-0.018034,-0.018275
20.430778,-0.013866,-0.022543,0.034038
20.440818,0.061758,-0.030179,0.016051
20.450828,0.011652,-0.027819,0.003105
20.470878,0.026602,-0.012876,-0.005328
20.470878,0.026602,-0.012876,-0.005328
20.480918,-0.014913,-0.039834,0.077750
20.490928,0.009580,-0.020458,0.028771
20.500968,0.061804,-0.014165,0.017195
20.510978,0.010690,-0.011984,0.042701
20.521018,0.009608,-0.004389,0.018165
20.551108,-0.010634,-0.005426,0.025582
20.551108,-0.010634,-0.005426,0.025582
20.561135,0.018192,-0.004599,0.056644
20.571175,-0.015961,-0.007570,0.030898
20.581185,-0.005304,-0.015141,0.043710
20.591225,0.010703,-0.014181,0.055510
20.611276,-0.006318,-0.005607,0.060844
20.611276,-0.006318,-0.005607,0.060844
20.621285,-0.015917,-0.003400,0.052282
20.631326,-0.001005,-0.015271,0.068291
20.641335,0.013894,-0.013093,0.049114
20.651376,0.008579,-0.018506,0.068302
20.661416,0.021436,-0.002605,0.084436
20.691476,0.010718,-0.012075,0.061929
20.691476,0.010718,-0.012075,0.061929
20.701516,-0.008444,-0.021776,0.093876
20.711526,-0.016991,-0.010912,0.060790
20.721566,-0.008404,-0.004669,0.089685
20.731576,-0.027605,-0.013170,0.093864
20.751626,-0.007377,-0.014243,0.081096
20.751626,-0.007377,-0.014243,0.081096
20.761666,-0.030842,-0.022731,0.085264
20.771706,-0.011642,-0.020688,0.091736
20.781716,-0.009484,-0.010005,0.089656
20.791756,-0.015962,-0.037730,0.085234
20.801766,0.003298,-0.011100,0.086482
20.831857,-0.010648,-0.035546,0.071373
20.831857,-0.010648,-0.035546,0.071373
20.841866,-0.027630,-0.043255,0.132177
20.851907,-0.037193,-0.010998,0.092780
20.861916,-0.039403,-0.050601,0.112882
20.871957,-0.014896,-0.045275,0.099089
20.892007,-0.038341,-0.041975,0.094766
20.892007,-0.038341,-0.041975,0.094766
20.902047,-0.035074,-0.026047,0.111942
20.912057,-0.042611,-0.057018,0.117116
20.922097,-0.027639,-0.027069,0.097003
20.932107,0.013904,-0.046517,0.116254
20.942147,0.000070,-0.045465,0.129039
20.972207,0.019323,-0.044667,0.172893
20.972207,0.019323,-0.044667,0.172893
20.982247,0.013851,-0.042043,0.073546
20.992287,-0.082911,-0.047827,0.233483
21.002297,-0.004271,-0.034433,0.057509
21.012338,-0.055326,-0.032440,0.122538
21.032388,-0.040599,-0.052339,0.029550
21.032388,-0.040599,-0.052339,0.029550
21.042397,-0.065805,-0.004963,0.191005
21.052438,-0.125730,-0.090183,0.186163
21.062447,0.021291,-0.030153,0.038372
21.072488,0.029003,-0.023431,0.192248
21.082497,-0.109831,-0.079186,0.108280
21.112588,0.008502,-0.061350,0.094804
21.112588,0.008502,-0.061350,0.094804
21.122628,0.045994,0.000408,0.108019
21.132638,-0.019188,-0.057019,0.101158
21.142678,0.044781,-0.031439,0.068341
21.152688,0.039548,-0.027418,0.124961
21.172738,0.002191,-0.033588,0.100259
21.182778,0.030995,-0.027305,0.106778
21.192788,-0.003208,-0.023656,0.036198
21.202828,-0.005244,-0.033645,0.117330
21.212869,0.025619,-0.020677,0.064066
21.222878,-0.020275,-0.047252,0.069154
21.252969,0.010725,-0.013174,0.068333
21.252969,0.010725,-0.013174,0.068333
21.262978,-0.082086,-0.041681,0.062601
21.273019,-0.070375,-0.030908,0.034910
21.283028,-0.053312,-0.033150,0.045629
21.293069,-0.092704,-0.024539,0.058379
21.313119,-0.087385,-0.021292,0.045591
21.323159,-0.058549,0.001046,0.044708
21.333169,-0.056375,0.011678,0.053310
21.343209,-0.018064,0.006350,0.024549
21.353219,0.000132,0.028667,0.035387
21.363259,-0.046860,0.001119,0.021240
21.383309,-0.041469,0.019216,0.029886
21.393319,0.018206,0.002897,0.052406
21.403359,0.061957,0.029514,0.039835
21.413369,0.008693,0.042533,0.033340
21.423409,0.045978,0.032775,0.038738
21.433419,-0.029758,0.020296,0.019242
21.453500,-0.003102,0.022331,0.022530
21.453500,-0.003102,0.022331,0.022530
21.463509,-0.034048,0.012855,0.014922
21.473550,-0.001981,0.041540,0.024760
21.483559,-0.029740,0.018085,0.035254
21.493600,-0.023423,0.005385,0.006370
21.503609,-0.036126,0.029929,0.019270
21.533700,-0.071390,0.003405,0.006228
21.533700,-0.071390,0.003405,0.006228
21.543710,-0.090622,-0.016848,0.011420
21.553750,-0.029807,0.007527,0.009567
21.563806,-0.015994,-0.003157,0.001009
21.573816,-0.062846,-0.002063,0.027590
21.593866,-0.025613,-0.017044,0.008394
21.593866,-0.025613,-0.017044,0.008394
21.603906,0.023488,0.003026,0.021444
21.613916,-0.101359,-0.039184,-0.000466
21.623956,-0.050159,-0.027634,0.006140
21.633966,-0.001129,-0.009492,-0.024617
21.644006,-0.090620,-0.024395,0.026339
21.664056,-0.043764,-0.028733,0.008289
21.674097,-0.068260,-0.014704,-0.005599
21.684106,0.018080,-0.017171,0.005310
21.694147,-0.052269,-0.020156,0.007238
21.704156,-0.017104,-0.006246,-0.022509
21.714197,-0.024536,-0.018161,0.018006
21.744257,0.013844,-0.004317,0.000018
21.744257,0.013844,-0.004317,0.000018
21.754297,-0.039529,-0.031889,-0.004533
21.764307,-0.018104,-0.001065,0.011695
21.774347,-0.059784,-0.023189,-0.023776
21.784387,0.001009,-0.021367,0.000970
21.804437,-0.017118,-0.006200,-0.032123
21.804437,-0.017118,-0.006200,-0.032123
21.814447,-0.012743,0.004202,0.023485
21.824487,-0.066198,-0.036034,-0.013172
21.834497,-0.001075,-0.012893,0.017027
21.844537,-0.023477,-0.005218,-0.009703
21.854547,-0.014938,-0.002052,-0.007528
21.884637,0.011680,-0.005287,-0.019221
21.884637,0.011680,-0.005287,-0.019221
21.894678,-0.014924,-0.009639,0.015936
21.904687,-0.021338,-0.003094,-0.008619
21.914728,0.015994,-0.001150,0.006448
21.924738,-0.037321,-0.005208,-0.002264
21.944788,0.010704,0.015979,0.001173
21.954828,-0.032017,-0.013764,-0.003358
21.964838,-0.019227,-0.013806,-0.003323
21.974878,0.015961,-0.011819,0.004261
21.984888,-0.063999,-0.020098,0.002933
21.994928,-0.001075,-0.002122,-0.002149
22.014978,0.003143,-0.024613,0.008438
22.025018,0.004222,-0.013887,-0.002190
22.035028,-0.036303,-0.025528,0.002984
22.045068,0.008510,-0.011826,0.010650
22.055078,-0.019270,-0.027673,-0.006593
22.065118,0.024461,-0.025766,0.011696
22.085168,0.001006,-0.009509,-0.022475
22.085168,0.001006,-0.009509,-0.022475
22.095178,-0.036281,-0.030984,0.027527
22.105219,-0.005400,-0.015916,-0.018250
22.115259,0.044700,-0.034415,0.020257
22.125269,-0.035282,-0.042623,0.003974
22.135309,0.011631,-0.020212,-0.024632
22.155359,-0.026807,-0.033870,-0.046167
22.155359,-0.026807,-0.033870,-0.046167
22.165369,0.014905,-0.023695,0.031976
22.175409,-0.073718,-0.075680,0.019734
22.185419,-0.001135,-0.015934,-0.017170
22.195459,0.010617,-0.034375,0.035118
22.205469,-0.026828,-0.047808,-0.034483
22.225549,-0.055588,-0.054229,-0.012161
22.235559,0.016998,-0.037585,0.031916
22.245599,0.036120,-0.025601,-0.030999
22.255609,0.016995,-0.037575,0.029779
22.265649,0.027637,-0.026788,-0.000050
22.275659,0.015875,-0.025551,-0.027851
22.295709,-0.003368,-0.047925,-0.025873
22.305750,0.011739,-0.015166,0.037348
22.315759,-0.037450,-0.038193,-0.028058
22.325800,0.024439,-0.036470,0.016986
22.335840,0.035043,-0.042796,-0.007583
22.345850,-0.025675,-0.044856,0.017876
22.365900,-0.021472,-0.028522,-0.051469
22.365900,-0.021472,-0.028522,-0.051469
22.375940,0.029945,-0.002577,0.072709
22.385950,-0.045973,-0.052180,-0.000374
22.395990,0.010556,-0.033105,-0.007605
22.406000,0.061867,-0.005748,0.043941
22.416040,-0.066239,-0.036981,-0.038814
22.436090,-0.052301,-0.036211,0.014639
22.446130,0.023366,-0.013823,-0.028843
22.456140,-0.003139,-0.016332,0.068280
22.466180,-0.004399,-0.017868,-0.057780
22.476190,0.020244,-0.008665,0.011765
22.486230,-0.060774,-0.028814,0.037083
22.506281,0.016137,0.014555,0.072752
22.516290,-0.136506,-0.052073,0.038900
22.526331,0.005334,0.020435,-0.034071
22.536340,-0.075700,-0.019053,0.015724
22.546381,-0.029886,-0.002996,-0.023597
22.556390,0.011733,-0.006532,0.018161
22.576501,0.009609,0.004225,0.003251
22.586511,-0.072573,-0.018841,-0.031268
22.596552,-0.014907,-0.011845,0.030881
22.606561,0.002048,-0.024519,-0.010792
22.616601,-0.013923,-0.005128,-0.035314
22.626612,0.023522,-0.004621,0.057727
22.646661,-0.004298,-0.000953,-0.021381
22.646661,-0.004298,-0.000953,-0.021381
22.656701,-0.049095,-0.028710,0.007206
22.666712,-0.038516,-0.042496,-0.020604
22.676751,-0.009633,-0.021383,0.011623
22.686791,-0.087565,-0.049808,-0.021842
22.696802,0.008434,-0.033128,-0.001202
22.716851,-0.019335,-0.043627,-0.020556
22.726892,-0.042775,-0.059731,0.013486
22.736902,-0.023637,-0.053184,-0.029159
22.746943,-0.021462,-0.055483,0.003951
22.756951,-0.054579,-0.077752,-0.006928
22.766992,-0.018292,-0.055408,-0.014199
22.787042,-0.040717,-0.073510,-0.010074
22.787042,-0.040717,-0.073510,-0.010074
22.797082,-0.026832,-0.069339,0.001734
22.807093,-0.039641,-0.070315,-0.008988
22.817133,-0.023696,-0.085313,-0.010083
22.827142,-0.018287,-0.060808,-0.001406
22.837182,-0.017247,-0.072579,0.002814
22.857232,-0.008664,-0.051243,0.001870
22.867242,-0.067373,-0.078773,-0.008036
22.877283,-0.008697,-0.070526,0.014597
22.887293,0.039226,-0.068410,-0.014102
22.897332,0.001992,-0.069584,0.033859
22.907373,0.010434,-0.074729,-0.013143
22.927423,-0.036408,-0.072592,0.018784
22.937432,0.031815,-0.053460,-0.008711
22.947474,0.016892,-0.074952,0.029602
22.957483,0.014776,-0.057757,0.008313
22.967523,0.034968,-0.070567,-0.006646
22.977532,0.033997,-0.053629,0.025477
23.007623,-0.034314,-0.067093,-0.016435
23.007623,-0.034314,-0.067093,-0.016435
23.017664,0.041484,-0.042963,0.023412
23.027674,-0.036432,-0.071438,0.000630
23.037713,0.037180,-0.040667,-0.007567
23.047723,-0.021396,-0.058925,0.054141
23.067773,0.025529,-0.034393,0.028750
23.077813,-0.005459,-0.076053,0.051968
23.087824,0.021205,-0.027724,-0.023573
23.097864,0.057517,-0.035621,0.040583
23.107873,0.039301,-0.055721,0.012664
23.117913,0.038279,-0.033235,0.001017
23.137963,0.042532,-0.035370,-0.002186
23.148004,0.014876,-0.032223,0.028730
23.158014,0.008430,-0.042811,0.013708
23.168055,0.070289,-0.016217,-0.006292
23.178063,-0.002185,-0.034293,0.026537
23.188104,0.036163,-0.023582,-0.006421
23.208154,-0.014999,-0.028791,0.000891
23.218164,0.006394,-0.003250,0.005343
23.228205,-0.018163,-0.026730,0.019051
23.238245,0.006350,-0.011727,-0.008584
23.248254,-0.001112,-0.018161,0.002047
23.258294,0.008452,-0.033184,0.010549
23.278344,0.003131,-0.022422,-0.003302
23.288354,-0.018144,-0.024635,0.027607
23.298395,0.020193,-0.007425,-0.024548
23.308405,-0.023444,-0.016095,0.031905
23.318444,0.013786,-0.017061,-0.014998
23.328454,0.020209,-0.009632,-0.009604
23.348536,-0.051278,-0.026385,-0.031245
23.358544,0.028776,-0.005479,0.009668
23.368585,-0.057617,-0.030849,0.013582
23.378595,-0.003248,-0.009525,-0.016077
23.388635,0.021353,-0.002342,0.028890
23.398644,-0.016089,-0.026555,-0.019398
23.418696,-0.033083,-0.013761,-0.003361
23.428735,-0.059719,-0.023397,0.020020
23.438745,0.012750,-0.003149,-0.020276
23.448786,-0.062934,-0.023331,0.008261
23.458825,0.013844,-0.004317,0.000018
23.468835,-0.051245,-0.029721,-0.003487
23.488886,0.002077,-0.005220,-0.026724
23.498925,-0.015995,-0.013927,0.020186
23.508935,-0.056549,-0.020087,-0.004524
23.518976,-0.020282,-0.019223,0.013740
23.528985,-0.017124,-0.013721,-0.022545
23.539025,-0.021379,-0.029893,0.012618
23.559076,-0.004339,-0.018060,-0.017189
23.569117,-0.016063,-0.029870,0.004087
23.579126,-0.045933,-0.040458,0.005023
23.589167,-0.005422,-0.030927,-0.005502
23.599177,0.004158,-0.046001,0.013681
23.609217,-0.068356,-0.044561,-0.015355
23.629267,-0.085391,-0.054258,0.014462
23.639277,-0.004355,-0.030936,-0.004431
23.649317,-0.065157,-0.046732,-0.010015
23.659327,-0.010730,-0.024513,-0.003350
23.669367,-0.029965,-0.044756,-0.000295
23.679407,-0.008627,-0.040589,0.007262
23.709467,-0.041676,-0.033988,-0.010958
23.719507,0.062845,-0.010858,-0.005219
23.729517,-0.069388,-0.053283,0.023057
23.739557,0.020143,-0.029887,-0.017177
23.749567,-0.029729,0.008357,0.059777
23.759607,-0.005408,-0.034202,0.009437
23.759607,-0.005408,-0.034202,0.009437
23.779657,-0.069301,-0.037400,0.051974
23.779657,-0.069301,-0.037400,0.051974
23.799708,-0.012627,0.033998,0.046059
23.809748,-0.123633,-0.050226,0.091287
23.809748,-0.123633,-0.050226,0.091287
23.819758,0.029851,0.014955,-0.021211
23.849848,-0.054407,-0.016895,-0.003435
23.849848,-0.054407,-0.016895,-0.003435
23.859858,-0.005360,-0.016042,0.008455
23.869898,-0.053349,-0.020107,-0.002379
23.879908,-0.041607,-0.020201,0.009403
23.889948,-0.008604,-0.015885,-0.022531
23.920038,0.055430,0.003024,0.000168
23.920038,0.055430,0.003024,0.000168
23.930048,-0.075701,-0.037364,0.048752
23.940088,0.008421,-0.026625,-0.021467
23.950098,-0.015977,-0.015061,0.034067
23.960138,-0.018218,-0.025480,-0.019399
23.990198,0.009539,-0.018176,-0.002196
23.990198,0.009539,-0.018176,-0.002196
24.000239,-0.034115,-0.008478,0.009480
24.010248,-0.040578,-0.027629,-0.001311
24.020289,0.054377,0.004065,0.006579
24.030329,-0.071447,-0.012573,-0.002393
24.060389,0.005353,0.005292,0.006449
24.060389,0.005353,0.005292,0.006449
24.070429,-0.095945,-0.007154,-0.002435
24.080439,-0.025637,-0.005120,-0.028937
24.090479,-0.020193,0.003118,0.032005
24.100489,-0.042679,-0.015870,-0.002329
24.130579,-0.062924,-0.006127,-0.016226
24.130579,-0.062924,-0.006127,-0.016226
24.140619,-0.031874,-0.015292,0.093842
24.150629,0.017066,0.006367,-0.003127
24.160669,0.023317,-0.028748,-0.034254
24.170679,-0.011619,-0.011066,0.089645
24.200770,-0.008600,-0.030978,0.007307
24.200770,-0.008600,-0.030978,0.007307
24.210779,-0.093959,-0.060562,-0.001614
24.220820,-0.063805,0.023454,0.052277
24.230829,-0.058820,-0.057341,-0.029276
24.240870,-0.181333,-0.042032,-0.020996
24.270960,-0.094969,-0.026264,-0.027092
24.270960,-0.094969,-0.026264,-0.027092
24.280970,-0.018213,-0.050270,0.028554
24.291010,-0.039651,-0.061665,-0.031379
24.301020,-0.039587,-0.043556,-0.021680
24.311060,-0.057632,-0.043730,0.027407
24.341120,-0.001954,-0.027486,0.167574
24.341120,-0.001954,-0.027486,0.167574
24.351160,0.066513,-0.071466,-0.289640
24.361200,-0.032150,-0.023036,-0.074973
24.371210,-0.032615,0.064472,0.164720
24.381250,0.086110,-0.040518,-0.072592
24.401301,0.059707,0.012662,-0.008321
24.401301,0.059707,0.012662,-0.008321
24.411310,-0.015983,-0.008578,0.018075
24.421351,0.104580,0.034791,0.023954
24.431360,-0.013878,0.001194,-0.017124
24.441401,-0.003096,0.027696,0.017214
24.451410,0.047048,0.051068,0.008917
24.481501,-0.038274,0.041835,-0.012726
24.481501,-0.038274,0.041835,-0.012726
24.491541,0.100284,0.032755,0.005773
24.501551,-0.005111,0.043494,0.065353
24.511591,-0.021377,0.008881,-0.056632
24.521601,0.065251,0.055053,0.057056
24.551691,0.038489,0.017807,0.047192
24.551691,0.038489,0.017807,0.047192
24.561722,-0.005266,0.024595,-0.003103
24.571762,0.001194,0.030830,0.028991
24.581802,-0.041464,0.024586,0.023502
24.591812,0.077839,0.009328,0.006669
24.621903,0.092856,0.033751,0.026053
24.621903,0.092856,0.033751,0.026053
24.631912,-0.054343,-0.004171,0.015853
24.641953,0.025614,0.007347,0.009719
24.651962,0.018133,-0.011953,0.030972
24.662003,0.044752,-0.010880,0.011823
24.682053,0.038378,-0.010925,0.025692
24.692093,0.020151,-0.036375,-0.000116
24.702103,0.015955,-0.026882,0.027690
24.712143,0.020143,-0.038506,-0.001195
24.722153,0.015872,-0.040623,-0.002285
24.732193,-0.002189,-0.038590,0.031858
24.762253,-0.008587,-0.037481,0.027573
24.762253,-0.008587,-0.037481,0.027573
24.772293,0.010489,-0.047975,-0.024767
24.782303,0.029780,-0.033294,0.019153
24.792343,-0.000165,-0.054414,-0.010940
24.802384,-0.010763,-0.035182,-0.005537
24.832443,0.016907,-0.049145,-0.007663
24.832443,0.016907,-0.049145,-0.007663
24.842484,-0.023551,-0.041608,0.007216
24.852493,-0.001204,-0.041570,-0.016223
24.862534,-0.023550,-0.045921,0.015741
24.872543,-0.002261,-0.032977,-0.025799
24.892594,-0.008629,-0.036272,-0.002332
24.892594,-0.008629,-0.036272,-0.002332
24.902634,-0.029973,-0.038267,-0.017355
24.912674,0.005233,-0.037415,0.004110
24.922684,-0.026755,-0.030802,-0.017311
24.932724,-0.032068,-0.039455,0.009339
24.942734,0.007383,-0.023478,-0.008636
24.972824,0.002041,-0.033113,-0.000151
24.972824,0.002041,-0.033113,-0.000151
24.982834,-0.004341,-0.028825,0.000920
24.992874,0.009522,-0.026739,0.002036
25.002884,0.021246,-0.027856,0.004200
25.012924,0.027659,-0.024703,0.010642
25.043015,0.003138,-0.029983,0.014822
25.043015,0.003138,-0.029983,0.014822
25.053024,-0.010704,-0.019208,0.004152
25.063065,0.019121,-0.023562,0.001010
25.073074,-0.020281,-0.023535,0.022265
25.083115,0.007378,-0.022385,-0.013972
25.103165,-0.038419,-0.021259,0.005134
25.113175,-0.008582,-0.021341,0.002012
25.123215,-0.000004,-0.015067,0.024498
25.133255,-0.010730,-0.020205,-0.010807
25.143265,0.008511,-0.017216,0.021306
25.153305,0.007419,-0.012819,-0.004313
25.173355,0.035143,-0.007564,-0.005280
25.183365,-0.029885,-0.027775,0.022218
25.193405,0.030909,-0.004413,0.008610
25.203415,0.006323,-0.024568,-0.003303
25.213455,-0.013827,-0.009738,0.036235
25.223465,0.013817,-0.006387,-0.013879
25.243546,0.020223,-0.007521,-0.004253
25.253555,-0.001118,-0.022453,0.006300
25.263596,-0.006400,-0.011812,0.018086
25.273605,-0.016043,-0.013775,-0.011860
25.283646,-0.011732,-0.017170,0.025523
25.293656,0.005302,-0.007473,-0.004294
25.323746,0.006374,-0.011803,0.007439
25.323746,0.006374,-0.011803,0.007439
25.333756,-0.001077,-0.006424,0.004239
25.343796,0.005314,-0.010742,0.009578
25.353806,0.014913,-0.007564,0.008551
25.363846,0.004227,-0.014980,0.003145
25.383896,0.018072,-0.006375,-0.019208
25.393936,-0.030887,-0.008585,0.029784
25.403946,-0.051164,-0.017052,0.027551
25.413986,-0.020387,-0.009196,-0.073807
25.423996,-0.072259,0.022176,0.102454
25.434036,-0.035237,-0.031994,0.014706
25.454086,-0.038289,-0.010899,0.072481
25.464096,-0.064074,-0.053254,0.013458
25.474136,-0.014923,-0.006410,0.010611
25.484177,-0.030950,-0.012694,-0.004418
25.494187,-0.021388,-0.025556,-0.001248
25.504227,-0.029917,-0.027674,0.000855
25.524277,0.018010,-0.032031,-0.013989
25.534287,-0.019208,-0.020330,0.021215
25.544327,-0.013954,-0.040577,0.008315
25.554337,-0.020354,-0.039463,0.002962
25.564415,0.002064,-0.023491,-0.002242
25.574425,-0.055514,-0.043691,0.017800
25.594505,-0.051226,-0.017933,-0.011977
25.604515,-0.065102,-0.041519,0.016715
25.614555,0.011621,-0.028796,-0.016127
25.624565,-0.029972,-0.038273,-0.016287
25.634605,-0.045922,-0.049107,0.027414
25.644615,0.005168,-0.039364,-0.035423
25.664665,-0.055512,-0.027541,-0.009898
25.664665,-0.055512,-0.027541,-0.009898
25.674705,0.009511,-0.012700,-0.031012
25.684715,-0.094907,-0.064162,0.082755
25.694756,-0.023580,-0.038283,-0.018406
25.704796,-0.046994,-0.034006,-0.003495
25.714806,-0.036337,-0.035114,-0.002403
25.734856,-0.041674,-0.040456,0.001830
25.744896,-0.035284,-0.041540,0.000774
25.754906,-0.023585,-0.045809,-0.007759
25.764946,-0.019289,-0.042695,0.008290
25.774956,-0.025751,-0.060774,-0.003563
25.784996,-0.018281,-0.067291,0.014586
25.815086,-0.025749,-0.068320,0.011356
25.815086,-0.025749,-0.068320,0.011356
25.825096,0.004086,-0.064084,-0.001360
25.835136,-0.024670,-0.058672,0.002859
25.845146,-0.004421,-0.052269,-0.009873
25.855186,-0.011825,-0.050271,0.024298
25.885246,-0.035306,-0.055474,0.011390
25.885246,-0.035306,-0.055474,0.011390
25.895287,-0.003345,-0.046918,-0.013050
25.905296,-0.012888,-0.042736,0.012581
25.915337,0.003087,-0.042748,0.004079
25.925377,0.007354,-0.047084,0.014753
25.945427,0.030872,-0.023686,0.019201
25.945427,0.030872,-0.023686,0.019201
25.955437,0.038272,-0.041829,0.011658
25.965477,0.020189,-0.036497,0.025520
25.975487,0.052183,-0.019428,0.007530
25.985527,0.008460,-0.039673,0.027609
25.995537,0.056473,-0.020606,0.027832
26.015587,0.012770,-0.032297,0.045816
26.025627,0.007392,-0.031045,0.010556
26.035667,-0.007546,-0.036331,0.009421
26.045677,-0.002088,-0.029217,0.082108
26.055717,0.023305,-0.036249,-0.028949
26.065727,-0.030927,-0.034311,0.049958
26.085777,-0.019286,-0.041627,0.008295
26.095818,-0.011737,-0.035467,0.055347
26.105827,-0.000092,-0.054646,0.038197
26.115868,0.029762,-0.017078,-0.022431
26.125877,-0.004261,-0.039849,0.073506
26.135918,0.016907,-0.054530,0.001925
26.155968,-0.005440,-0.053490,0.023233
26.166008,-0.007583,-0.053448,0.015749
26.176018,0.007353,-0.048157,0.015816
26.186058,0.053185,-0.047238,0.015947
26.196068,-0.005463,-0.053420,0.008278
26.206108,0.028630,-0.051334,-0.004437
26.226158,-0.003297,-0.037377,0.001950
26.226158,-0.003297,-0.037377,0.001950
26.236168,-0.005483,-0.053354,-0.005609
26.246208,-0.021447,-0.056607,0.015696
26.256248,-0.015075,-0.051172,-0.008829
26.266258,-0.016129,-0.051204,-0.001355
26.276298,-0.019280,-0.040570,0.010437
26.296349,-0.001127,-0.031042,0.015873
26.306358,-0.037444,-0.056525,0.009243
26.316399,0.020117,-0.041654,-0.012960
26.326408,-0.010735,-0.029883,0.003034
26.336449,0.013730,-0.047044,0.001952
26.346458,0.000952,-0.038424,-0.005520
26.366539,0.018033,-0.033180,0.003098
26.376549,-0.006507,-0.041633,0.000853
26.386589,-0.003273,-0.035297,0.013711
26.396599,-0.022489,-0.032982,-0.010900
26.406639,-0.045915,-0.034050,0.005053
26.416649,-0.012866,-0.026647,-0.002298
26.436699,-0.032090,-0.040462,-0.003485
26.446739,-0.010696,-0.020312,0.011625
26.456749,-0.024611,-0.039469,0.007223
26.466789,-0.016080,-0.036278,0.004057
26.476829,0.002100,-0.022530,0.020195
26.486839,0.000966,-0.035235,-0.002300
26.506889,0.006344,-0.026790,0.014846
26.516930,0.000981,-0.037437,0.011576
26.526939,0.005285,-0.020343,0.007396
26.536980,0.014895,-0.021508,0.021304
26.546989,0.010551,-0.040631,0.003042
26.557030,-0.004285,-0.022539,0.026587
26.577108,0.008454,-0.029960,0.006291
26.587119,-0.012815,-0.019267,0.018033
26.597158,-0.006447,-0.021358,0.004154
26.607198,-0.032039,-0.025542,0.002995
26.617209,-0.008537,-0.016097,0.022333
26.627249,-0.020314,-0.018043,-0.009755
26.647298,-0.018194,-0.029863,0.004081
26.657309,-0.013910,-0.024558,0.008391
26.667348,-0.007515,-0.017037,-0.005442
26.677358,-0.013895,-0.022452,0.014810
26.687399,0.004198,-0.022430,-0.002231
26.697409,-0.016055,-0.020198,-0.008686
26.717489,-0.000099,-0.025539,-0.019349
26.727499,0.006374,-0.019345,0.021290
26.737539,-0.027788,-0.030905,0.005118
26.747548,-0.018224,-0.030845,-0.014083
26.757590,-0.053352,-0.031946,0.016793
26.767599,-0.034215,-0.034012,-0.010938
26.787649,-0.035242,-0.031979,0.011502
26.797690,-0.022464,-0.035214,0.009385
26.807700,-0.027786,-0.033066,0.010449
26.817739,-0.042750,-0.033959,-0.016302
26.827780,-0.046989,-0.040485,0.011429
26.837790,-0.028825,-0.029915,0.022211
26.857839,-0.032018,-0.022378,0.011556
26.867880,-0.043807,-0.033981,-0.010964
26.877889,-0.035257,-0.035163,0.007214
26.887929,-0.019258,-0.033099,0.011541
26.897939,-0.062989,-0.031773,-0.013143
26.907980,-0.029899,-0.023423,0.005148
26.928029,-0.033115,-0.017966,-0.017268
26.938071,-0.076777,-0.022248,0.014638
26.948079,-0.037416,-0.033992,-0.013083
26.958120,-0.011753,-0.012797,0.004180
26.968130,-0.060826,-0.029725,0.003964
26.978171,-0.029895,-0.020204,0.001958
26.998220,-0.014935,-0.014989,0.018047
27.008231,-0.027775,-0.018019,-0.009776
27.018271,-0.012795,-0.016099,0.025526
27.028280,-0.002169,-0.018188,0.008454
27.038320,0.005289,-0.013895,-0.001119
27.048361,0.007465,-0.010810,0.022402
27.058370,-0.011804,-0.030947,0.003026
27.068410,-0.007451,-0.001084,0.008520
27.078421,-0.018150,-0.013844,0.004157
27.088461,-0.014966,-0.019200,0.005209
27.098470,-0.020268,-0.012805,0.011634
27.108510,-0.026720,-0.024450,-0.005531
27.118521,-0.014926,-0.004243,0.004212
27.138570,-0.016064,-0.023402,-0.008701
27.138570,-0.016064,-0.023402,-0.008701
27.148611,-0.019193,-0.009605,0.011652
27.158652,-0.019225,-0.021352,0.011596
27.168660,-0.032044,-0.025526,-0.000209
27.178701,-0.034123,-0.012760,0.011596
27.188712,-0.022453,-0.027709,0.003012
27.208761,-0.019233,-0.023483,0.010518
27.218802,-0.020312,-0.020205,-0.004425
27.228812,-0.026736,-0.038404,0.009358
27.238851,-0.014985,-0.024524,0.001979
27.248861,-0.018206,-0.035213,0.006192
27.258902,-0.005381,-0.023518,0.008420
27.278951,-0.012866,-0.032032,0.007290
27.288992,-0.021402,-0.034130,0.005120
27.299002,-0.025668,-0.041647,0.016823
27.309041,-0.025659,-0.030902,0.002988
27.309041,-0.025659,-0.030902,0.002988
27.329092,-0.053421,-0.050040,0.003888
27.349141,-0.091783,-0.045628,0.000599
27.359152,-0.098200,-0.046615,-0.012242
27.369192,-0.088588,-0.048863,0.004865
27.379232,-0.101379,-0.042353,-0.007958
27.389242,-0.110000,-0.053875,-0.049697
27.399283,-0.118315,-0.018970,0.027357
27.419332,-0.075806,-0.039187,-0.017486
27.429342,-0.079971,-0.021170,0.014634
27.439383,-0.056566,-0.009261,-0.035451
27.449392,-0.025624,-0.017009,0.000917
27.459432,-0.017060,-0.000997,-0.003257
27.469443,-0.025621,-0.006249,-0.016124
27.489522,-0.015967,0.010762,-0.006403
27.489522,-0.015967,0.010762,-0.006403
27.509573,0.008588,0.041788,-0.035030
27.519582,0.076857,0.040307,0.005744
27.519582,0.076857,0.040307,0.005744
27.539633,0.081993,0.043053,-0.126687
27.559682,0.074566,0.037585,-0.094687
27.559682,0.074566,0.037585,-0.094687
27.579738,-0.042466,0.047011,0.024674
27.579738,-0.042466,0.047011,0.024674
27.589779,-0.025428,0.079317,-0.043492
27.599819,-0.038074,0.075674,0.057936
27.619869,-0.024203,0.100354,0.023909
27.639919,-0.076504,0.104000,-0.033902
27.639919,-0.076504,0.104000,-0.033902
27.649929,-0.098836,0.099604,0.007675
27.659969,-0.024274,0.093040,-0.010309
27.669979,0.003458,0.096113,-0.001672
27.680019,-0.042408,0.074833,0.013055
27.690029,-0.009408,0.077008,-0.017821
27.720119,-0.030762,0.050268,0.005494
27.720119,-0.030762,0.050268,0.005494
27.730159,0.004451,0.065099,0.006730
27.740169,0.018250,0.047998,0.000278
27.750209,0.009711,0.034062,0.017279
27.760219,0.000105,0.028753,0.017228
27.790310,0.048029,0.015787,0.016231
27.790310,0.048029,0.015787,0.016231
27.800319,0.057477,-0.036572,0.016009
27.810360,0.002190,0.000884,0.037398
27.820369,-0.039536,-0.027557,-0.017331
27.830410,0.018191,0.011562,0.026810
27.860500,0.060761,-0.025008,0.052392
27.860500,0.060761,-0.025008,0.052392
27.870510,0.026526,-0.034179,-0.017180
27.880550,-0.004286,-0.035461,0.048958
27.890560,0.072380,-0.039794,0.009626
27.900600,-0.008660,-0.055565,0.012532
27.930660,0.021242,-0.042923,0.028697
27.930660,0.021242,-0.042923,0.028697
27.940700,0.031905,-0.039744,0.026606
27.950740,0.040407,-0.035383,0.002081
27.960750,0.023367,-0.042910,0.024431
27.970791,0.026572,-0.034326,0.013798
28.000850,0.023385,-0.026810,0.007415
28.000850,0.023385,-0.026810,0.007415
28.010891,0.028716,-0.025754,0.006367
28.020900,0.025527,-0.021462,0.004242
28.030941,0.008448,-0.029940,0.002018
28.040950,0.025545,-0.018288,0.010666
28.071041,0.026614,-0.011839,0.001086
28.071041,0.026614,-0.011839,0.001086
28.081081,0.003140,-0.020296,-0.001156
28.091091,-0.003225,-0.016059,0.010597
28.101131,0.015942,-0.012837,-0.006426
28.111141,0.001041,-0.017161,0.014877
28.131191,0.023412,-0.018276,0.009592
28.131191,0.023412,-0.018276,0.009592
28.141231,-0.003238,-0.018175,0.006314
28.151241,0.004227,-0.013902,0.001014
28.161281,0.009566,-0.017184,0.013832
28.171322,0.005257,-0.024564,-0.003306
28.181331,0.009570,-0.020428,0.022362
28.211422,0.030867,-0.025822,0.019191
28.211422,0.030867,-0.025822,0.019191
28.221431,0.013772,-0.024557,-0.010760
28.231472,0.030892,-0.017283,0.020300
28.241481,0.023365,-0.028900,-0.002209
28.251522,0.015921,-0.030005,0.010584
28.271572,0.028723,-0.022545,0.005314
28.271572,0.028723,-0.022545,0.005314
28.281612,0.007387,-0.029952,0.005220
28.291622,0.019126,-0.023577,0.004214
28.301662,0.018064,-0.018198,-0.003241
28.311672,0.008455,-0.028887,0.005228
28.321712,0.009527,-0.019213,-0.008610
28.351772,-0.015010,-0.029833,-0.004455
28.351772,-0.015010,-0.029833,-0.004455
28.361812,0.007381,-0.027780,-0.002247
28.371822,0.009498,-0.026664,-0.013987
28.381862,0.004178,-0.032062,0.001996
28.391903,0.015919,-0.022458,-0.004335
28.421962,0.030832,-0.020325,-0.013898
28.421962,0.030832,-0.020325,-0.013898
28.432003,0.028678,-0.035330,-0.001156
28.442012,0.010585,-0.022426,-0.007554
28.452053,0.043606,-0.023550,-0.018151
28.462062,0.020181,-0.024623,-0.001129
28.482113,0.011681,-0.012828,-0.005369
28.482113,0.011681,-0.012828,-0.005369
28.492153,0.012694,-0.026669,-0.015046
28.502193,0.024426,-0.026732,-0.009673
28.512203,0.015895,-0.028845,-0.008638
28.522243,0.044675,-0.023564,-0.016011
28.532253,0.026560,-0.023515,-0.013925
28.562343,0.011609,-0.033068,-0.016148
28.562343,0.011609,-0.033068,-0.016148
28.572386,0.017997,-0.038454,-0.010814
28.582426,0.022268,-0.030952,-0.019313
28.592436,0.004128,-0.040519,-0.016203
28.602476,0.028655,-0.038488,-0.010785
28.632567,0.020134,-0.034169,-0.015061
28.632567,0.020134,-0.034169,-0.015061
28.642576,0.036094,-0.041676,-0.019325
28.652617,0.026536,-0.037444,-0.004377
28.662626,0.024362,-0.044842,-0.019373
28.672667,0.048950,-0.025769,-0.004259
28.692717,0.044642,-0.038540,-0.010741
28.692717,0.044642,-0.038540,-0.010741
28.702727,0.046781,-0.035338,-0.011788
28.712767,0.052112,-0.037517,-0.006443
28.722807,0.043579,-0.032084,-0.020327
28.732817,0.036134,-0.035339,-0.004340
28.742857,0.034009,-0.027811,-0.013924
28.772917,0.009483,-0.029847,-0.018275
28.772917,0.009483,-0.029847,-0.018275
28.782957,0.011616,-0.029859,-0.017201
28.792967,0.013724,-0.035175,-0.023629
28.803007,-0.006487,-0.026617,-0.012962
28.813017,0.006266,-0.028698,-0.033233
28.843107,0.009466,-0.031948,-0.025762
28.843107,0.009466,-0.031948,-0.025762
28.853148,-0.002228,-0.028771,-0.011893
28.863157,0.013736,-0.025518,-0.033197
28.873198,0.020148,-0.026673,-0.019298
28.883208,0.002031,-0.024463,-0.022543
28.903258,0.013751,-0.025569,-0.022515
28.903258,0.013751,-0.025569,-0.022515
28.913298,0.006248,-0.031871,-0.039657
28.923308,0.021240,-0.017065,-0.019250
28.933348,0.000945,-0.020087,-0.043889
28.943358,0.005196,-0.025450,-0.041766
28.953398,0.006287,-0.017993,-0.038523
28.983488,-0.017194,-0.021040,-0.055694
28.983488,-0.017194,-0.021040,-0.055694
28.993498,-0.006510,-0.012541,-0.053488
29.003538,-0.004381,-0.012538,-0.055619
29.013548,-0.004401,-0.022170,-0.051391
29.023588,0.002005,-0.012534,-0.060942
29.053648,0.005201,-0.011461,-0.064133
29.053648,0.005201,-0.011461,-0.064133
29.063688,-0.002282,-0.019985,-0.063125
29.073729,0.000879,-0.025264,-0.078097
29.083739,0.001985,-0.020009,-0.060977
29.093779,-0.002319,-0.025254,-0.078105
29.113829,-0.002304,-0.024221,-0.070623
29.113829,-0.002304,-0.024221,-0.070623
29.123839,0.001953,-0.018830,-0.084473
29.133879,-0.003360,-0.013478,-0.083394
29.143889,-0.003394,-0.024142,-0.086649
29.153929,0.000887,-0.012363,-0.096195
29.163939,-0.004440,-0.013429,-0.093010
29.194029,-0.011918,-0.010120,-0.110107
29.194029,-0.011918,-0.010120,-0.110107
29.204069,-0.001248,-0.006961,-0.107926
29.214079,0.003004,-0.005861,-0.117523
29.224119,-0.005524,-0.003672,-0.122877
29.234129,0.005134,0.000600,-0.130305
29.254179,-0.005503,0.004876,-0.123905
29.254179,-0.005503,0.004876,-0.123905
29.264219,0.015768,0.008183,-0.160150
29.274229,0.004071,0.007057,-0.139891
29.284270,0.004055,0.007107,-0.150573
29.294310,0.007249,0.010341,-0.159095
29.304320,-0.006604,0.011454,-0.159128
29.324370,-0.006624,0.009364,-0.168752
29.334410,-0.026867,0.014794,-0.174123
29.344420,-0.004470,0.024368,-0.181493
29.354460,-0.008773,0.016968,-0.194359
29.364470,-0.024743,0.019120,-0.186915
29.374510,-0.021572,0.020269,-0.206129
29.394560,-0.014096,0.025584,-0.206083
29.394560,-0.014096,0.025584,-0.206083
29.404600,0.000836,0.029807,-0.206022
29.414610,-0.014138,0.018174,-0.220005
29.424650,-0.011979,0.025623,-0.215691
29.434660,-0.006661,0.028870,-0.228480
29.444700,0.000771,0.022473,-0.235967
29.464751,0.019948,0.028900,-0.252975
29.474760,0.002899,0.018169,-0.230640
29.484801,0.015722,0.037411,-0.243332
29.494810,0.012410,0.029167,-0.304269
29.504851,-0.009888,0.026820,-0.244521
29.514891,0.022053,0.032208,-0.276454
29.534941,0.003955,0.033279,-0.264749
29.544951,0.009253,0.023665,-0.267984
29.554991,0.026310,0.024673,-0.266864
29.565015,0.026290,0.022583,-0.276488
29.575055,0.018795,0.011943,-0.279763
29.585065,0.031585,0.018364,-0.291448
29.605115,0.001720,0.013147,-0.296896
29.605115,0.001720,0.013147,-0.296896
29.615155,0.013428,0.009925,-0.301152
29.625195,0.029398,0.002388,-0.299007
29.635205,0.014480,0.006733,-0.304369
29.645245,0.012319,-0.001783,-0.308688
29.655255,0.033633,-0.001847,-0.309698
29.665296,0.046395,-0.006110,-0.320365
29.675305,0.027184,-0.015659,-0.320463
29.685346,0.021865,-0.013516,-0.318331
29.695355,0.063413,-0.011439,-0.334230
29.705396,0.053827,-0.012506,-0.327852
29.715405,0.029254,-0.029473,-0.336546
29.725446,0.063413,-0.007132,-0.341687
29.745496,0.064454,-0.015674,-0.342793
29.745496,0.064454,-0.015674,-0.342793
29.755536,0.049517,-0.017731,-0.349253
29.765546,0.067637,-0.015639,-0.352397
29.775586,0.035641,-0.018698,-0.361046
29.785596,0.076146,-0.018845,-0.357730
29.795636,0.030297,-0.016479,-0.374937
29.815686,0.063335,-0.019810,-0.370589
29.825696,0.065453,-0.018699,-0.381260
29.835736,0.056936,-0.015467,-0.381268
29.845776,0.063324,-0.013312,-0.389786
29.855786,0.060142,-0.005811,-0.392964
29.865827,0.069731,-0.007988,-0.390811
29.885877,0.031284,-0.020542,-0.419819
29.885877,0.031284,-0.020542,-0.419819
29.895886,0.070760,-0.013260,-0.405788
29.905927,0.062238,-0.015399,-0.399413
29.915936,0.082283,-0.028821,-0.510515
29.925977,0.058930,-0.017195,-0.468864
29.935986,0.031128,-0.020046,-0.524502
29.956067,0.103518,-0.030789,-0.560672
29.966077,0.053458,-0.039346,-0.523463
29.976117,0.075725,-0.036899,-0.604574
29.986127,0.065326,-0.033377,-0.439013
29.996167,0.055769,-0.032379,-0.417670
30.006177,0.084470,-0.032234,-0.467796
30.026227,0.086569,-0.042910,-0.469978
30.036267,0.092951,-0.041813,-0.480637
30.046277,0.073840,-0.041983,-0.431553
30.056317,0.090879,-0.037686,-0.448577
30.066358,0.085526,-0.042978,-0.455026
30.076367,0.079201,-0.023790,-0.443202
30.096417,0.087684,-0.033373,-0.454974
30.106458,0.092979,-0.044055,-0.458215
30.116467,0.087645,-0.044022,-0.461434
30.126508,0.093013,-0.033391,-0.454960
30.136517,0.096208,-0.031240,-0.460282
30.146558,0.090855,-0.032225,-0.474188
30.166608,0.085507,-0.038610,-0.475301
30.176648,0.094064,-0.027963,-0.474159
30.186658,0.099379,-0.034398,-0.472038
30.196698,0.091927,-0.030092,-0.474175
30.206708,0.088649,-0.057833,-0.477520
30.216748,0.072762,-0.025784,-0.468867
30.236798,0.067421,-0.034345,-0.461444
30.246808,0.079088,-0.036357,-0.495604
30.256848,0.095101,-0.051573,-0.450767
30.266858,0.097225,-0.046169,-0.465691
30.276898,0.086526,-0.029847,-0.522258
30.286908,0.093048,-0.041043,-0.417608
30.306989,0.105698,-0.039567,-0.512637
30.316998,0.084496,-0.033393,-0.448574
30.327039,0.103580,-0.042834,-0.497704
30.337048,0.100439,-0.036538,-0.472046
30.347089,0.091875,-0.056856,-0.460415
30.357098,0.096208,-0.017235,-0.485853
30.367139,0.080150,-0.046043,-0.480692
30.377149,0.104719,-0.035529,-0.462415
30.387189,0.102385,-0.048884,-0.572511
30.397199,0.090851,-0.038673,-0.465673
30.407239,0.093997,-0.027751,-0.519023
30.417279,0.065127,-0.047827,-0.544835
30.427289,0.071661,-0.028898,-0.487044
30.437329,0.084363,-0.043744,-0.518057
30.447339,0.081193,-0.039512,-0.507364
30.457379,0.065232,-0.034156,-0.499905
30.467389,0.058854,-0.024494,-0.506286
30.477429,0.089722,-0.030931,-0.521186
30.487439,0.091824,-0.057772,-0.492466
30.497479,0.087546,-0.026475,-0.558559
30.517529,0.107838,-0.044984,-0.497702
30.527570,0.093903,-0.044686,-0.551150
30.537579,0.118438,-0.052378,-0.522277
30.547620,0.083301,-0.045907,-0.511661
30.557629,0.107741,-0.054373,-0.544748
30.567715,0.108854,-0.050216,-0.521225
30.587765,0.097089,-0.058665,-0.533048
30.597775,0.094975,-0.058714,-0.521303
30.607815,0.079011,-0.049041,-0.523438
30.617825,0.118378,-0.066190,-0.537297
30.627865,0.094947,-0.067242,-0.524548
30.637905,0.085365,-0.064013,-0.523491
30.657955,0.094011,-0.023484,-0.517935
30.667965,0.090686,-0.066161,-0.524555
30.678005,0.110931,-0.061899,-0.536229
30.688015,0.116277,-0.061972,-0.524465
30.698055,0.107748,-0.061934,-0.526624
30.708065,0.119476,-0.060909,-0.525519
30.728115,0.108800,-0.065126,-0.529841
30.738155,0.124846,-0.045976,-0.525433
30.748196,0.129132,-0.047138,-0.508336
30.758205,0.124794,-0.063047,-0.528719
30.768246,0.129089,-0.054543,-0.523326
30.778256,0.130164,-0.054577,-0.516914
30.798306,0.112095,-0.038514,-0.513683
30.808346,0.117356,-0.055553,-0.527636
30.818356,0.110984,-0.055603,-0.512699
30.828396,0.109915,-0.051282,-0.522295
30.838406,0.114140,-0.065179,-0.522349
30.848446,0.110997,-0.051336,-0.511610
30.868496,0.104588,-0.053426,-0.516979
30.868496,0.104588,-0.053426,-0.516979
30.878536,0.115211,-0.065198,-0.519142
30.888546,0.099242,-0.053353,-0.528744
30.898586,0.094998,-0.055556,-0.511674
30.908596,0.094973,-0.056553,-0.526634
30.918636,0.105645,-0.060940,-0.509534
30.938686,0.117389,-0.045962,-0.523318
30.948696,0.104627,-0.048162,-0.500931
30.958737,0.108863,-0.054553,-0.507359
30.968777,0.101430,-0.037381,-0.520116
30.978787,0.095049,-0.040635,-0.505194
30.988827,0.073702,-0.051240,-0.506372
31.008877,0.077986,-0.047013,-0.499931
31.018887,0.092903,-0.040583,-0.514814
31.028927,0.088659,-0.042786,-0.497745
31.038937,0.123845,-0.036482,-0.499754
31.048977,0.083339,-0.033101,-0.509464
31.058987,0.111086,-0.031152,-0.489082
31.079067,0.097241,-0.026830,-0.490168
31.089077,0.105740,-0.027850,-0.506173
31.099117,0.138767,-0.038687,-0.495450
31.109127,0.106780,-0.045006,-0.492364
31.119167,0.117461,-0.030034,-0.504014
31.129177,0.106806,-0.033238,-0.496581
31.139217,0.099363,-0.027885,-0.494440
31.149227,0.104647,-0.039609,-0.503027
31.159268,0.092930,-0.041747,-0.494523
31.169277,0.090836,-0.031086,-0.489138
31.179318,0.105699,-0.042801,-0.506243
31.189358,0.078027,-0.035291,-0.494534
31.189358,0.078027,-0.035291,-0.494534
31.209408,0.078001,-0.034132,-0.513757
31.229458,0.079095,-0.037455,-0.489200
31.229458,0.079095,-0.037455,-0.489200
31.249508,0.080244,-0.020488,-0.464548
31.259518,0.089727,-0.039565,-0.501999
31.269558,0.105750,-0.027880,-0.499763
31.279568,0.105794,-0.030173,-0.466660
31.299648,0.108978,-0.021523,-0.491179
31.309658,0.115364,-0.034445,-0.473063
31.309658,0.115364,-0.034445,-0.473063
31.319698,0.091878,-0.032092,-0.503026
31.339748,0.096156,-0.039692,-0.479550
31.349758,0.100416,-0.028926,-0.500851
31.369808,0.087562,-0.051300,-0.503129
31.379849,0.087562,-0.027885,-0.482737
31.379849,0.082328,-0.027885,-0.482737
31.399899,0.098262,-0.039618,-0.496635
31.399899,0.098262,-0.039618,-0.496635
31.409939,0.084425,-0.042863,-0.478529
31.419949,0.085505,-0.028908,-0.494483
31.450039,0.080171,-0.035338,-0.485983
31.450039,0.080171,-0.035338,-0.485983
31.460049,0.075873,-0.048140,-0.486055
31.470089,0.068408,-0.049178,-0.487149
31.480099,0.085467,-0.044947,-0.490286
31.490139,0.083346,-0.048204,-0.477489
31.510189,0.098255,-0.055754,-0.472143
31.510189,0.098255,-0.055754,-0.472143
31.520229,0.106768,-0.054663,-0.482796
31.530239,0.088664,-0.050342,-0.480689
31.540279,0.118490,-0.054696,-0.483832
31.550289,0.085466,-0.053561,-0.475372
31.560330,0.103566,-0.053559,-0.488141
31.580401,0.093976,-0.057845,-0.478574
31.580401,0.093976,-0.057845,-0.478574
31.590410,0.063107,-0.049252,-0.467936
31.600451,0.097181,-0.054647,-0.479618
31.610460,0.085422,-0.070658,-0.473317
31.620501,0.091846,-0.058921,-0.475380
31.630541,0.090825,-0.050440,-0.461456
31.650591,0.118490,-0.068700,-0.458261
31.650591,0.118490,-0.068700,-0.458261
31.660601,0.076901,-0.066338,-0.477593
31.670641,0.105689,-0.071852,-0.460448
31.680651,0.091809,-0.074961,-0.471183
31.690691,0.075846,-0.070677,-0.462661
31.700701,0.091838,-0.068588,-0.463675
31.730791,0.076899,-0.077104,-0.459484
31.730791,0.076899,-0.077104,-0.459484
31.740831,0.117401,-0.075084,-0.462567
31.750841,0.077971,-0.076049,-0.457340
31.760882,0.099309,-0.068648,-0.456177
31.770891,0.089702,-0.072878,-0.458360
31.790941,0.105701,-0.069737,-0.456165
31.790941,0.105701,-0.069737,-0.456165
31.800982,0.069458,-0.070677,-0.458406
31.810991,0.081234,-0.063341,-0.436974
31.821032,0.075891,-0.057893,-0.456191
31.831041,0.082288,-0.062231,-0.446580
31.841082,0.085502,-0.063370,-0.433758
31.871172,0.068438,-0.062201,-0.443414
31.871172,0.068438,-0.062201,-0.443414
31.881182,0.068483,-0.059113,-0.418830
31.891222,0.119610,-0.066720,-0.426202
31.901232,0.070589,-0.056883,-0.440178
31.911272,0.079111,-0.069822,-0.419920
31.931322,0.065280,-0.059083,-0.423112
31.931322,0.065280,-0.059083,-0.423112
31.941332,0.067410,-0.055856,-0.429500
31.951372,0.061017,-0.053684,-0.432712
31.961382,0.057825,-0.056923,-0.423122
31.971422,0.050337,-0.062198,-0.431713
31.981463,0.041859,-0.046166,-0.428456
32.011522,0.048248,-0.047245,-0.430580
32.011522,0.048248,-0.047245,-0.430580
32.021563,0.070626,-0.053771,-0.420935
32.031572,0.040757,-0.053588,-0.439177
32.041613,0.090867,-0.060269,-0.415569
32.051622,0.046075,-0.060033,-0.434920
32.071673,0.103657,-0.061389,-0.413402
32.081713,0.055665,-0.058981,-0.438093
32.091753,0.096202,-0.059229,-0.413413
32.101763,0.081238,-0.065507,-0.430575
32.111803,0.070597,-0.057987,-0.432706
32.121813,0.102580,-0.062428,-0.418751
32.141863,0.067389,-0.064404,-0.428472
32.151903,0.071627,-0.072956,-0.429569
32.161913,0.054655,-0.038687,-0.437999
32.171953,0.078056,-0.059084,-0.431622
32.181963,0.065249,-0.064372,-0.433819
32.192003,0.032217,-0.062134,-0.432831
32.212053,0.063168,-0.042981,-0.439064
32.222094,0.045013,-0.056810,-0.438112
32.232103,0.061013,-0.057981,-0.427391
32.242144,0.034344,-0.050277,-0.457338
32.252154,0.055697,-0.052619,-0.428449
32.262194,0.066335,-0.053666,-0.440174
32.282244,0.072753,-0.053762,-0.424134
32.292254,0.067393,-0.057956,-0.436987
32.302294,0.080237,-0.044165,-0.426204
32.312334,0.066361,-0.056981,-0.416689
32.322344,0.077016,-0.052698,-0.426254
32.332384,0.085605,-0.045382,-0.398422
32.352434,0.122911,-0.041206,-0.403640
32.362444,0.099456,-0.049724,-0.393063
32.372484,0.088806,-0.043251,-0.399471
32.382494,0.101628,-0.039087,-0.385529
32.392534,0.085641,-0.042264,-0.380247
32.402544,0.103739,-0.046569,-0.385559
32.422625,0.080348,-0.033744,-0.371676
32.432634,0.087779,-0.049833,-0.362117
32.442675,0.081432,-0.038115,-0.351397
32.452685,0.068647,-0.035933,-0.352491
32.462725,0.099543,-0.044612,-0.344969
32.472735,0.084643,-0.039244,-0.340712
32.492785,0.094233,-0.043577,-0.334296
32.502825,0.077202,-0.041437,-0.323651
32.512835,0.090018,-0.038330,-0.311851
32.522875,0.077218,-0.041487,-0.312969
32.532915,0.087895,-0.040505,-0.302253
32.542925,0.083669,-0.025530,-0.304330
32.552965,0.079375,-0.042653,-0.293741
32.562975,0.072978,-0.045856,-0.289501
32.573030,0.074131,-0.022436,-0.274432
32.583040,0.087948,-0.029901,-0.286180
32.593080,0.094358,-0.039665,-0.258434
32.603090,0.069857,-0.031006,-0.265939
32.613130,0.077348,-0.020356,-0.264799
32.633180,0.099733,-0.025824,-0.253013
32.633180,0.099733,-0.025824,-0.253013
32.643221,0.062464,-0.020424,-0.240272
32.653231,0.061397,-0.027957,-0.227492
32.663271,0.090156,-0.027995,-0.239163
32.673281,0.059325,-0.016289,-0.209283
32.683321,0.050799,-0.014110,-0.212501
32.703371,0.050784,-0.024835,-0.202938
32.713381,0.059316,-0.018415,-0.211429
32.723421,0.079578,-0.030369,-0.181520
32.733431,0.061451,-0.025973,-0.195436
32.743471,0.045498,-0.023876,-0.176242
32.753511,0.031646,-0.022763,-0.176275
32.773561,0.048718,-0.023958,-0.161279
32.783571,0.019934,-0.024917,-0.164568
32.793611,0.033802,-0.026080,-0.153853
32.803621,0.042352,-0.022950,-0.144200
32.813661,0.025300,-0.019665,-0.149573
32.823671,0.028504,-0.021852,-0.141029
32.843721,0.017820,-0.031429,-0.141104
32.843721,0.017820,-0.031429,-0.141104
32.853762,0.008281,-0.021872,-0.122925
32.863802,0.031709,-0.025117,-0.130353
32.873812,0.023173,-0.032600,-0.122935
32.883852,0.010388,-0.031496,-0.121897
32.893862,0.019999,-0.022968,-0.125034
32.913912,0.018943,-0.030536,-0.104777
32.923952,0.000813,-0.017516,-0.135744
32.933962,0.013595,-0.036922,-0.105890
32.944002,0.022123,-0.039110,-0.100536
32.954012,0.011438,-0.032527,-0.130444
32.964052,0.023220,-0.034903,-0.087694
32.994142,-0.005596,-0.044380,-0.096365
32.994142,-0.005596,-0.044380,-0.096365
33.004152,0.000769,-0.041076,-0.121969
33.014192,0.007223,-0.039128,-0.086690
33.024202,0.020004,-0.029447,-0.110110
33.034242,0.012529,-0.045537,-0.089911
33.054293,0.015720,-0.045528,-0.094175
33.064302,0.027477,-0.041360,-0.080236
33.074343,0.026373,-0.043391,-0.101613
33.084383,0.008305,-0.039182,-0.076006
33.094393,0.002968,-0.033754,-0.090950
33.104433,0.004005,-0.042286,-0.094192
33.124483,-0.017287,-0.034751,-0.092079
33.134493,-0.000203,-0.037059,-0.067473
33.144533,-0.011964,-0.036904,-0.092074
33.154543,-0.014099,-0.041194,-0.086759
33.164583,0.007272,-0.024202,-0.081279
33.174593,0.024283,-0.031667,-0.095154
33.194673,0.016834,-0.033834,-0.083434
33.204683,0.009377,-0.032742,-0.083450
33.214723,0.005111,-0.035952,-0.079204
33.224733,0.028576,-0.027465,-0.083372
33.234773,0.033892,-0.028520,-0.089771
33.244783,0.018987,-0.036063,-0.065279
33.264833,0.045643,-0.029722,-0.069448
33.274874,0.034973,-0.025340,-0.085480
33.284883,0.027511,-0.030696,-0.076981
33.294924,0.032836,-0.035010,-0.071645
33.304964,0.041392,-0.024358,-0.071571
33.314974,0.049946,-0.020165,-0.060846
33.335024,0.028658,-0.010489,-0.059790
33.345064,0.041407,-0.022253,-0.065152
33.355074,0.028667,-0.004057,-0.065101
33.365114,0.025480,0.000231,-0.066158
33.375124,0.036103,-0.021238,-0.050207
33.385164,0.032907,-0.010458,-0.069392
