time_tick,gyr_X_value,gyr_Y_value,gyr_Z_value
0.010202,-0.010709,-0.020271,0.003079
0.010202,-0.010709,-0.020271,0.003079
0.020212,-0.006458,-0.023479,0.000939
0.030252,-0.004332,-0.026700,0.003066
0.040262,-0.002187,-0.021362,0.002029
0.050302,-0.005396,-0.026701,0.004132
0.060312,-0.005390,-0.024565,0.004142
0.070352,-0.005392,-0.023482,0.000942
0.080362,-0.009649,-0.021332,0.000941
0.090403,-0.009649,-0.022411,0.003072
0.100443,-0.005394,-0.025628,0.003068
0.110453,-0.007519,-0.022412,0.002010
0.120493,-0.006452,-0.021343,0.000949
0.130503,-0.002185,-0.021367,0.003098
0.140543,-0.010722,-0.023460,-0.000141
0.150553,-0.007522,-0.024558,0.004136
0.160593,-0.007519,-0.022412,0.002010
0.170603,-0.005390,-0.023487,0.002010
0.180643,-0.007514,-0.021349,0.003083
0.190653,-0.005390,-0.024565,0.004142
0.200693,-0.006449,-0.021353,0.003086
0.210733,-0.004325,-0.022413,-0.000118
0.220743,-0.007517,-0.022417,0.003078
0.230783,-0.007509,-0.019214,0.003093
0.240793,-0.010731,-0.027742,0.001976
0.250833,-0.009642,-0.019202,0.002019
0.260873,-0.010712,-0.019183,-0.001189
0.270913,-0.008574,-0.019210,0.003090
0.280923,-0.008574,-0.019210,0.003090
0.290964,0.001002,-0.024576,0.002023
0.300973,-0.016034,-0.018113,0.002006
0.311014,-0.016015,-0.010632,0.000974
0.321054,0.001004,-0.022430,-0.000103
0.331064,-0.007517,-0.022417,0.003078
0.341104,0.003138,-0.023520,0.003102
0.351114,-0.004326,-0.023486,0.000945
0.361154,-0.018156,-0.014902,0.002016
0.371164,-0.007513,-0.020277,0.002020
0.381204,0.002066,-0.025652,0.003089
0.391214,-0.003250,-0.020290,0.002031
0.401254,-0.007510,-0.020287,0.004156
0.411264,-0.002196,-0.023487,-0.000117
0.421304,-0.006460,-0.025625,0.003066
0.431344,-0.007519,-0.022412,0.002010
0.441354,-0.004323,-0.023496,0.003082
0.451394,-0.006449,-0.021353,0.003086
0.461404,-0.007523,-0.023475,0.000936
0.471444,-0.006452,-0.022421,0.003081
0.481454,-0.007516,-0.022422,0.004146
0.491495,-0.005384,-0.022429,0.004152
0.501504,-0.008579,-0.020273,0.002017
0.511545,-0.002196,-0.025644,0.004145
0.521554,-0.008585,-0.022409,0.002007
0.531595,-0.007510,-0.020287,0.004156
0.541635,-0.006441,-0.019222,0.004164
0.551645,-0.003263,-0.024557,0.000943
0.561685,-0.009648,-0.021338,0.002009
0.571695,-0.006450,-0.022426,0.004149
0.581735,-0.007513,-0.021355,0.004151
0.591745,-0.006444,-0.019212,0.002028
0.601785,-0.006456,-0.023484,0.002007
0.611795,-0.008583,-0.022414,0.003075
0.621835,-0.006443,-0.019217,0.003096
0.631845,-0.005386,-0.022424,0.003084
0.641885,-0.003259,-0.023494,0.002016
0.651925,-0.007522,-0.023480,0.002005
0.661935,-0.005393,-0.024555,0.002005
0.671975,-0.007516,-0.021344,0.002015
0.681985,-0.007516,-0.021344,0.002015
0.692026,-0.004326,-0.023486,0.000945
0.702035,-0.006455,-0.022411,0.000944
0.712076,-0.004323,-0.023496,0.003082
0.722085,-0.007523,-0.024553,0.003068
0.732126,-0.007516,-0.021344,0.002015
0.742135,-0.004329,-0.024554,0.000940
0.752176,-0.007521,-0.022407,0.000941
0.762216,-0.008583,-0.022414,0.003075
0.772226,-0.006454,-0.023489,0.003076
0.782266,-0.007513,-0.021355,0.004151
0.792276,-0.004329,-0.025632,0.003071
0.802316,-0.005389,-0.023492,0.003079
0.812326,-0.006450,-0.021348,0.002018
0.822366,-0.007519,-0.022412,0.002010
0.832376,-0.007519,-0.022412,0.002010
0.842416,-0.007522,-0.023480,0.002005
0.852426,-0.003251,-0.022441,0.005226
0.862466,-0.007517,-0.022417,0.003078
0.872506,-0.007510,-0.019209,0.002025
0.882516,-0.007523,-0.023475,0.000936
0.892557,-0.003254,-0.022431,0.003090
0.902566,-0.004319,-0.021355,0.002023
0.912607,-0.006450,-0.021348,0.002018
0.922616,-0.004322,-0.021345,-0.000113
0.932657,-0.007523,-0.023475,0.000936
0.942666,-0.006452,-0.022421,0.003081
0.952707,-0.008582,-0.021341,0.002012
0.962716,-0.009643,-0.019197,0.000951
0.972757,-0.003266,-0.025625,0.000938
0.982797,-0.004329,-0.025632,0.003071
0.992807,-0.006454,-0.023489,0.003076
1.002847,-0.003257,-0.022421,0.000953
1.012857,-0.007521,-0.022407,0.000941
1.022897,-0.007531,-0.026684,0.001989
1.032907,-0.006459,-0.024552,0.002002
1.042947,-0.004320,-0.022428,0.003087
1.052957,-0.007510,-0.019209,0.002025
1.062997,-0.005387,-0.022419,0.002015
1.073007,-0.004330,-0.025627,0.002003
1.083047,-0.009641,-0.020280,0.004150
1.093088,-0.003238,-0.016019,0.002052
1.103097,-0.007513,-0.021355,0.004151
1.113138,-0.006461,-0.024547,0.000934
1.123147,-0.006441,-0.018144,0.002033
1.133188,-0.001104,-0.014958,0.002063
1.143197,-0.007510,-0.020287,0.004156
1.153238,-0.009649,-0.021332,0.000941
1.163247,-0.006437,-0.017081,0.003106
1.173288,-0.001104,-0.013880,-0.000069
1.183297,-0.007507,-0.019219,0.004161
1.193338,-0.008586,-0.022404,0.000938
1.203378,-0.006436,-0.016008,0.002043
1.213388,-0.011756,-0.011709,-0.000088
1.223428,-0.013890,-0.014926,0.004164
1.233438,0.008449,-0.029945,0.003086
1.243478,-0.010695,-0.012775,-0.001158
1.253488,-0.005377,-0.019221,0.003099
1.263560,-0.007497,-0.014942,0.003113
1.273570,0.004219,-0.016033,-0.000064
1.283610,-0.009641,-0.017051,-0.001176
1.293620,-0.008562,-0.016017,0.005242
1.303660,0.001034,-0.012829,0.002079
1.313701,-0.010704,-0.015979,-0.001173
1.323710,-0.006437,-0.016003,0.000975
1.333751,0.006373,-0.009647,0.003177
1.343760,-0.009635,-0.015993,0.000966
1.353801,-0.010696,-0.013848,-0.000095
1.363810,-0.003215,-0.007475,0.002092
1.373851,-0.002166,-0.014964,0.004196
1.383860,-0.005357,-0.010667,0.001003
1.393901,-0.011735,-0.004234,-0.000052
1.403941,-0.010676,-0.009602,0.005266
1.413951,0.003189,-0.003214,-0.000006
1.423991,-0.006409,-0.008553,0.006351
1.434001,-0.008539,-0.005317,0.001019
1.444041,-0.002134,-0.002139,0.002120
1.454051,-0.012794,-0.003177,0.003154
1.464091,-0.005332,0.001105,-0.004282
1.474101,-0.009584,-0.002150,0.009577
1.484141,-0.006394,0.002172,-0.003212
1.494151,-0.011707,0.004295,0.003193
1.504191,-0.005304,0.009634,-0.001037
1.514232,-0.015976,0.002173,0.003171
1.524241,-0.005299,0.012848,-0.003159
1.534282,-0.005296,0.008530,0.006435
1.544291,-0.006365,0.013929,-0.005293
1.554332,-0.008489,0.010682,0.005368
1.564341,-0.009558,0.015002,-0.004228
1.574382,-0.006348,0.012800,0.007521
1.584392,-0.005296,0.014994,-0.005285
1.594432,-0.011662,0.020308,0.004337
1.604442,-0.007424,0.014990,-0.003154
1.614482,0.003253,0.019202,0.002236
1.624522,-0.013795,0.021398,0.001131
1.634532,0.004315,0.018136,0.001166
1.644572,-0.011674,0.017115,0.002185
1.654582,-0.012749,0.016071,-0.002096
1.664622,-0.000995,0.022400,0.006512
1.674632,-0.009569,0.010731,-0.004249
1.684672,0.006441,0.014915,0.003293
1.694682,-0.013825,0.012875,-0.003182
1.704722,-0.007437,0.006412,0.004283
1.714732,-0.019142,0.015008,0.001086
1.724772,-0.009580,0.002147,0.004257
1.734813,-0.006372,0.006413,0.003217
1.744822,-0.012777,0.005386,-0.001078
1.754863,-0.006391,-0.002145,0.006381
1.764872,-0.007470,-0.005331,0.003159
1.774913,-0.008545,-0.009609,0.005272
1.784923,-0.013853,-0.001038,0.003161
1.794963,-0.008561,-0.014944,0.004178
1.804973,-0.003243,-0.017082,0.000978
1.815013,-0.014945,-0.011724,0.005244
1.825023,-0.007519,-0.022412,0.002010
1.835063,-0.007503,-0.020307,0.008429
1.845103,-0.013922,-0.025595,0.001977
1.855113,-0.009656,-0.024541,0.001994
1.865153,-0.008577,-0.021356,0.005216
1.875163,-0.006491,-0.035221,-0.000185
1.885203,-0.009662,-0.027755,0.004115
1.895213,-0.012871,-0.030938,0.001954
1.905253,-0.004355,-0.034165,0.000895
1.915263,-0.012869,-0.032022,0.005154
1.925303,-0.015015,-0.034125,-0.000203
1.935313,-0.008620,-0.034146,-0.000185
1.945353,-0.016071,-0.034152,0.006203
1.955394,-0.015017,-0.033042,-0.003402
1.965403,-0.010741,-0.032018,0.003023
1.975444,-0.011827,-0.040568,0.005116
1.985454,-0.010742,-0.029862,-0.001239
1.995494,-0.017129,-0.032018,0.007279
2.005504,-0.010764,-0.036255,-0.004474
2.015544,-0.010735,-0.030961,0.005165
2.025554,-0.016073,-0.031991,0.000872
2.035594,-0.005420,-0.033088,-0.000172
2.045604,-0.016070,-0.033079,0.005140
2.055644,-0.015002,-0.027702,-0.003377
2.065684,-0.011795,-0.029899,0.007303
2.075694,-0.020346,-0.033025,-0.003417
2.085734,-0.009645,-0.020270,0.002014
2.095744,-0.011803,-0.028796,-0.000169
2.105784,-0.008608,-0.030952,0.001966
2.115794,-0.011784,-0.022393,0.000930
2.125834,-0.012862,-0.028813,0.004101
2.135844,-0.005396,-0.024545,-0.000131
2.145884,-0.016046,-0.024536,0.005181
2.155894,-0.007518,-0.021339,0.000946
2.165934,-0.014985,-0.024524,0.001979
2.175975,-0.019242,-0.023452,0.004109
2.185985,-0.004317,-0.020282,0.000960
2.196025,-0.017114,-0.024527,0.004110
2.206035,-0.004314,-0.020292,0.003097
2.216075,-0.011770,-0.018127,0.002018
2.226085,-0.016040,-0.022400,0.005191
2.236125,-0.002182,-0.017070,-0.002223
2.246135,-0.011780,-0.025638,0.009460
2.256175,-0.011765,-0.015991,0.002028
2.266194,-0.014967,-0.019194,0.004141
2.276234,-0.010733,-0.027737,0.000907
2.286274,-0.007510,-0.021365,0.006287
2.286274,-0.007510,-0.021365,0.006287
2.296284,-0.011782,-0.022399,0.001998
2.306324,-0.009640,-0.021363,0.007350
2.326374,-0.007529,-0.027767,0.005189
2.336384,0.001024,-0.019262,0.007389
2.346424,-0.014977,-0.021320,0.001994
2.346424,-0.014977,-0.021320,0.001994
2.366474,-0.012842,-0.020259,0.002005
2.376484,-0.021374,-0.023445,0.004103
2.386525,-0.002197,-0.025639,0.003077
2.386525,-0.002197,-0.025639,0.003077
2.396565,-0.016032,-0.018118,0.003075
2.416615,-0.006466,-0.027761,0.003055
2.416615,-0.006466,-0.027761,0.003055
2.426625,-0.023500,-0.020225,0.001976
2.436665,-0.013924,-0.025590,0.000909
2.446675,-0.006460,-0.026703,0.005197
2.456715,-0.020302,-0.021313,0.004116
2.466725,-0.000075,-0.027771,0.000937
2.486775,-0.004317,-0.021360,0.003092
2.486775,-0.004317,-0.021360,0.003092
2.496815,0.007404,-0.024622,0.007381
2.506855,-0.010719,-0.025626,0.006258
2.516865,0.012719,-0.029979,0.007371
2.526905,0.012719,-0.029979,0.007371
2.536915,-0.012821,-0.016018,0.008434
2.556965,-0.011776,-0.022419,0.006271
2.556965,-0.011776,-0.022419,0.006271
2.567005,-0.017093,-0.018130,0.006276
2.577015,0.004189,-0.029941,0.005211
2.587056,-0.022417,-0.018128,0.009466
2.597065,0.002059,-0.028861,0.004142
2.607106,-0.001133,-0.031022,0.011600
2.627156,0.009516,-0.033182,0.009483
2.627156,0.009516,-0.033182,0.009483
2.637196,-0.003253,-0.025665,0.009484
2.647206,-0.008587,-0.025633,0.006264
2.657246,0.004200,-0.033206,0.018014
2.667256,-0.002188,-0.023513,0.005224
2.677296,0.002067,-0.029965,0.011614
2.687306,-0.002202,-0.031009,0.009461
2.697346,-0.016053,-0.028823,0.008365
2.707356,-0.011786,-0.027774,0.009450
2.727436,-0.012849,-0.028853,0.012647
2.727436,-0.012849,-0.028853,0.012647
2.737446,-0.006489,-0.037382,0.005146
2.747486,-0.026698,-0.024521,0.009424
2.767536,0.003120,-0.034235,0.010529
2.767536,0.003120,-0.034235,0.010529
2.777546,-0.026689,-0.022396,0.011571
2.787587,-0.005399,-0.032076,0.011584
2.797596,-0.006461,-0.031010,0.012654
2.807637,-0.023484,-0.019197,0.010526
2.817646,-0.005415,-0.038489,0.012622
2.837727,-0.021349,-0.019214,0.012669
2.837727,-0.021349,-0.019214,0.012669
2.847737,-0.001148,-0.036362,0.011575
2.857777,-0.012843,-0.024566,0.009462
2.867787,-0.011766,-0.023527,0.014811
2.877827,-0.008606,-0.034192,0.009428
2.887837,-0.013908,-0.025641,0.011591
2.907887,-0.015001,-0.034171,0.009411
2.907887,-0.015001,-0.034171,0.009411
2.917927,-0.026689,-0.022396,0.011571
2.927937,-0.013913,-0.025626,0.008386
2.937977,-0.011788,-0.028842,0.009445
2.948017,-0.026695,-0.024531,0.011561
2.958027,-0.009670,-0.033115,0.008362
2.978077,-0.021375,-0.026674,0.009429
2.978077,-0.021375,-0.026674,0.009429
2.988118,-0.010727,-0.029908,0.008375
2.998127,-0.019246,-0.028827,0.011561
3.008168,-0.014984,-0.028836,0.010504
3.018177,-0.006470,-0.033136,0.010508
3.028218,-0.019238,-0.027775,0.014770
3.038258,-0.018191,-0.030952,0.008349
3.048268,-0.002193,-0.028883,0.011608
3.058308,-0.010718,-0.029938,0.014784
3.068318,-0.012854,-0.029916,0.011573
3.078358,-0.006453,-0.029957,0.015864
3.088368,-0.002197,-0.032102,0.014797
3.098408,-0.009650,-0.029947,0.015855
3.118458,-0.003269,-0.034234,0.014784
3.118458,-0.003269,-0.034234,0.014784
3.128468,-0.016051,-0.033140,0.017958
3.138508,-0.004336,-0.034226,0.013713
3.148548,-0.005400,-0.037461,0.021172
3.158558,-0.013915,-0.028850,0.012644
3.168599,-0.005391,-0.033180,0.019056
3.178608,-0.007542,-0.037419,0.013689
3.188649,-0.025625,-0.028857,0.022225
3.198658,0.011648,-0.037502,0.018014
3.208699,0.011628,-0.044977,0.017979
3.218708,-0.018173,-0.031007,0.020099
3.228749,0.006327,-0.034275,0.016947
3.238758,0.008444,-0.039622,0.016927
3.258847,0.004188,-0.037477,0.017994
3.258847,0.004188,-0.037477,0.017994
3.268857,0.002040,-0.043883,0.019026
3.278897,-0.022428,-0.026712,0.017971
3.288907,-0.007518,-0.031032,0.017992
3.298947,-0.002222,-0.040640,0.013688
3.308957,-0.013896,-0.024603,0.018005
3.329007,0.006287,-0.047075,0.013681
3.329007,0.006287,-0.047075,0.013681
3.339047,-0.017101,-0.025646,0.014786
3.349057,-0.012836,-0.026743,0.017998
3.359097,-0.005420,-0.040630,0.013680
3.369138,-0.022443,-0.030973,0.015815
3.379147,-0.022430,-0.024550,0.012640
3.389188,-0.000092,-0.039564,0.010495
3.399197,-0.018185,-0.035279,0.020079
3.409238,-0.023494,-0.023474,0.011574
3.419247,-0.006477,-0.037422,0.013692
3.429288,-0.007554,-0.040613,0.011537
3.439297,-0.020314,-0.030970,0.013684
3.449338,-0.016066,-0.034167,0.009408
3.469388,-0.017129,-0.035252,0.013673
3.469388,-0.017129,-0.035252,0.013673
3.479428,-0.021391,-0.033087,0.010466
3.489438,-0.007556,-0.039530,0.008338
3.499478,-0.009676,-0.037407,0.012615
3.509488,-0.013940,-0.037388,0.011535
3.519528,-0.017145,-0.038430,0.008317
3.529538,0.004160,-0.042776,0.009423
3.539578,-0.006490,-0.041689,0.012603
3.549588,-0.015005,-0.036312,0.010469
3.559628,0.002019,-0.047046,0.010465
3.569638,-0.003323,-0.049145,0.006168
3.579678,-0.012896,-0.042711,0.007240
3.589719,-0.002235,-0.041678,0.007274
3.609769,-0.005451,-0.049148,0.008298
3.609769,-0.005451,-0.049148,0.008298
3.619778,-0.006494,-0.039523,0.006204
3.629819,0.007344,-0.044897,0.004081
3.639828,0.002003,-0.049152,0.004046
3.649869,-0.010758,-0.040582,0.007256
3.659878,0.013724,-0.048102,-0.000190
3.679929,-0.004380,-0.042703,-0.000214
3.679929,-0.004380,-0.042703,-0.000214
3.689969,0.004143,-0.044877,0.001936
3.700009,0.001987,-0.053408,0.000821
3.710019,-0.006500,-0.040581,0.004063
3.720059,0.007366,-0.037427,0.005184
3.730069,0.015854,-0.050260,0.003011
3.750119,0.008405,-0.043808,-0.001252
3.750119,0.008405,-0.043808,-0.001252
3.760159,0.000954,-0.043814,0.005136
3.770169,0.015834,-0.054506,-0.002351
3.780209,-0.006505,-0.040566,0.000858
3.790219,-0.005449,-0.043768,-0.000222
3.800259,0.010523,-0.049159,-0.000203
3.820309,-0.004381,-0.041625,-0.002345
3.820309,-0.004381,-0.041625,-0.002345
3.830350,0.001989,-0.048028,-0.007699
3.840359,-0.007581,-0.042683,-0.002359
3.850400,-0.013963,-0.035161,-0.007682
3.860409,0.001984,-0.049091,-0.008772
3.870450,-0.001199,-0.043741,-0.008756
3.890500,-0.000121,-0.038395,-0.010864
3.890500,-0.000121,-0.038395,-0.010864
3.900510,-0.004385,-0.038381,-0.010876
3.910550,-0.004392,-0.036205,-0.019411
3.920590,-0.007572,-0.033016,-0.014064
3.930600,0.000951,-0.031955,-0.018308
3.940640,0.007328,-0.038384,-0.018321
3.960690,0.006271,-0.030869,-0.025766
3.960690,0.006271,-0.030869,-0.025766
3.970700,0.012666,-0.030890,-0.025748
3.980740,-0.005459,-0.029733,-0.032202
3.990750,0.000945,-0.026550,-0.032169
4.000790,-0.000124,-0.027614,-0.032177
4.010800,-0.003312,-0.021171,-0.037497
4.030881,-0.009725,-0.024324,-0.043939
4.030881,-0.009725,-0.024324,-0.043939
4.040890,-0.001202,-0.024341,-0.046052
4.050931,0.005173,-0.028608,-0.051395
4.060940,-0.006535,-0.021080,-0.054597
4.070981,-0.006540,-0.024294,-0.052475
4.080991,0.004088,-0.029622,-0.062085
4.091031,-0.005462,-0.015718,-0.059909
4.101041,0.005161,-0.023183,-0.069529
4.111081,0.006216,-0.030692,-0.063153
4.121091,-0.001243,-0.024210,-0.073825
4.131131,-0.000182,-0.026354,-0.072764
4.141171,-0.003392,-0.028459,-0.077055
4.151181,-0.000185,-0.022037,-0.082357
4.171231,0.005119,-0.028436,-0.087714
4.171231,0.005119,-0.028436,-0.087714
4.181271,-0.000223,-0.029457,-0.094143
4.191281,0.006179,-0.029498,-0.089852
4.201321,0.001891,-0.032637,-0.100561
4.211331,0.005057,-0.043322,-0.101671
4.221371,-0.008773,-0.030431,-0.108058
4.241421,-0.001339,-0.036833,-0.114477
4.251462,-0.003454,-0.029340,-0.116584
4.261513,0.002928,-0.033627,-0.117654
4.271554,0.012484,-0.042162,-0.126214
4.281564,-0.002409,-0.029278,-0.130467
4.291604,0.003968,-0.034628,-0.132611
4.301614,0.004998,-0.043134,-0.141194
4.311654,0.000767,-0.032451,-0.139019
4.321664,0.020996,-0.034602,-0.149656
4.331704,0.016708,-0.044205,-0.148645
4.341714,0.006072,-0.032393,-0.155027
4.351754,0.007105,-0.039831,-0.163605
4.361794,0.014582,-0.034521,-0.162491
4.381844,0.015625,-0.034454,-0.177443
4.391854,0.010286,-0.037635,-0.178541
4.401894,0.011342,-0.036530,-0.187079
4.411904,0.005996,-0.035384,-0.199907
4.421944,0.003842,-0.038535,-0.209542
4.431954,0.016640,-0.036451,-0.207360
4.441994,0.004928,-0.031063,-0.209503
4.452004,0.013425,-0.036385,-0.219119
4.462044,0.014488,-0.036379,-0.221252
4.472085,0.018747,-0.034226,-0.227640
4.482095,0.018708,-0.038412,-0.245819
4.492135,0.011243,-0.036216,-0.253307
4.502145,0.006970,-0.030787,-0.269316
4.522195,0.012275,-0.035035,-0.277867
4.532235,0.013285,-0.032711,-0.318446
4.542245,0.015343,-0.036792,-0.360120
4.552285,0.002478,-0.036513,-0.410360
4.562295,0.020560,-0.034299,-0.439141
4.572335,0.014083,-0.038327,-0.486179
4.592385,0.030035,-0.035039,-0.514962
4.602425,0.074689,-0.038069,-0.582150
4.612435,0.037314,-0.039872,-0.627127
4.622475,0.091595,-0.045201,-0.666526
4.632485,0.064854,-0.037269,-0.744542
4.642525,0.058330,-0.035760,-0.833214
4.652535,0.016725,-0.025807,-0.877079
4.662576,0.042343,-0.047557,-0.811950
4.672585,0.053506,-0.044883,-0.481829
4.682626,0.063230,-0.049642,-0.385685
4.692666,0.047274,-0.043223,-0.377153
4.702676,0.062178,-0.041064,-0.392057
4.712716,0.087719,-0.051796,-0.398446
4.732766,0.067493,-0.039958,-0.403787
4.742776,0.079187,-0.044212,-0.415525
4.752816,0.069581,-0.046292,-0.420903
4.762826,0.080268,-0.034569,-0.422954
4.772866,0.083421,-0.048442,-0.427284
4.782876,0.093014,-0.045244,-0.432583
4.792916,0.063186,-0.032266,-0.446491
4.802956,0.110025,-0.055938,-0.441133
4.812966,0.084474,-0.040864,-0.449678
4.823006,0.094063,-0.040885,-0.451788
4.833016,0.087639,-0.052621,-0.449725
4.843056,0.103633,-0.048386,-0.452865
4.853066,0.106842,-0.045203,-0.450705
4.873116,0.111101,-0.047358,-0.449635
4.883157,0.123879,-0.046286,-0.459208
4.893166,0.116414,-0.052710,-0.450714
4.903207,0.120691,-0.045228,-0.454939
4.913247,0.130263,-0.051657,-0.457080
4.923257,0.115373,-0.044168,-0.449608
4.933297,0.118562,-0.041997,-0.459203
4.943307,0.134540,-0.050638,-0.449586
4.953347,0.115389,-0.038833,-0.448514
4.963357,0.119572,-0.055828,-0.471016
4.973397,0.089884,-0.015286,-0.442064
4.983407,0.162169,-0.067703,-0.473091
4.993447,0.115388,-0.045292,-0.437863
5.023537,0.111101,-0.047358,-0.449635
5.033547,0.115353,-0.039795,-0.470952
5.043587,0.125985,-0.044056,-0.480556
5.053597,0.089781,-0.037581,-0.469944
5.063638,0.105731,-0.043980,-0.482748
5.073647,0.114219,-0.053579,-0.491316
5.083688,0.097204,-0.043947,-0.483840
5.093697,0.101434,-0.047089,-0.499866
5.103738,0.126984,-0.057851,-0.499847
5.113747,0.100405,-0.039661,-0.489152
5.123788,0.116312,-0.053464,-0.516947
5.133828,0.113108,-0.052355,-0.523360
5.153878,0.107761,-0.051204,-0.537256
5.163888,0.087559,-0.043749,-0.519117
5.173928,0.086495,-0.039444,-0.525509
5.183938,0.104554,-0.052242,-0.541542
5.193978,0.093924,-0.046908,-0.533001
5.203988,0.099257,-0.042628,-0.538307
5.224038,0.094990,-0.043682,-0.538324
5.234078,0.107734,-0.051118,-0.555415
5.244118,0.117301,-0.060766,-0.554366
5.254128,0.105660,-0.037289,-0.542537
5.264186,0.120517,-0.052218,-0.557521
5.274195,0.113061,-0.054360,-0.551143
5.294245,0.137581,-0.050152,-0.554260
5.304286,0.127988,-0.053350,-0.548960
5.314295,0.130141,-0.045887,-0.547851
5.324336,0.147154,-0.056586,-0.555332
5.334345,0.149306,-0.054503,-0.545702
5.344386,0.149312,-0.049138,-0.551018
5.354426,0.159940,-0.062003,-0.547845
5.364436,0.147189,-0.052390,-0.539289
5.374476,0.153564,-0.055579,-0.546764
5.384486,0.163172,-0.055661,-0.536055
5.394526,0.167412,-0.058833,-0.545673
5.404536,0.177035,-0.057882,-0.527482
5.414576,0.180207,-0.061046,-0.538170
5.434626,0.194082,-0.056845,-0.532771
5.444636,0.207919,-0.069755,-0.522112
5.454676,0.175985,-0.051466,-0.528523
5.464717,0.192991,-0.063223,-0.538145
5.474726,0.195161,-0.057967,-0.522091
5.484767,0.185527,-0.063189,-0.540302
5.494776,0.169578,-0.058946,-0.523235
5.504817,0.166373,-0.056760,-0.531779
5.514826,0.180233,-0.055742,-0.530668
5.524867,0.180221,-0.058935,-0.532819
5.534876,0.168522,-0.049281,-0.533874
5.544917,0.175974,-0.053587,-0.531737
5.554926,0.184488,-0.058959,-0.530671
5.575007,0.186607,-0.061082,-0.534948
5.585017,0.182376,-0.050399,-0.532773
5.595057,0.181298,-0.051433,-0.539190
5.605067,0.188746,-0.061114,-0.529601
5.615107,0.183446,-0.047183,-0.535959
5.625117,0.197280,-0.056855,-0.532762
5.635157,0.188766,-0.054712,-0.528503
5.645167,0.190886,-0.052527,-0.540237
5.655207,0.189813,-0.057889,-0.534924
5.665217,0.181305,-0.049302,-0.538112
5.675257,0.183436,-0.051460,-0.534911
5.685298,0.186608,-0.058931,-0.538143
5.695307,0.169580,-0.049259,-0.539212
5.715357,0.177029,-0.052477,-0.541343
5.725398,0.159957,-0.055595,-0.547814
5.735407,0.147221,-0.043872,-0.533907
5.745448,0.167430,-0.051348,-0.547774
5.755457,0.156794,-0.050306,-0.534980
5.765498,0.135485,-0.044872,-0.540354
5.775508,0.151455,-0.047024,-0.547797
5.785548,0.131218,-0.044848,-0.542502
5.795588,0.138640,-0.054443,-0.551072
5.805598,0.133335,-0.049116,-0.544653
5.815638,0.118438,-0.039451,-0.545716
5.825648,0.126920,-0.056571,-0.544706
5.835688,0.116288,-0.046925,-0.544689
5.845698,0.138665,-0.049139,-0.543570
5.855738,0.137584,-0.052319,-0.547861
5.865748,0.121631,-0.043754,-0.541455
5.875788,0.142942,-0.043808,-0.544601
5.885798,0.146132,-0.047027,-0.543539
5.895838,0.133331,-0.046950,-0.551052
5.905879,0.149349,-0.043869,-0.536038
5.915888,0.142908,-0.050165,-0.555313
5.925929,0.121625,-0.046968,-0.539334
5.935938,0.123738,-0.043685,-0.557472
5.945979,0.124787,-0.053330,-0.551106
5.955988,0.109899,-0.043690,-0.546828
5.966029,0.113054,-0.048954,-0.565004
5.976039,0.102449,-0.037238,-0.551091
5.986079,0.113076,-0.044713,-0.558575
5.996089,0.114170,-0.038344,-0.551064
6.006129,0.122708,-0.034100,-0.551020
6.016169,0.124844,-0.030888,-0.554204
6.026179,0.145081,-0.037377,-0.550974
6.036219,0.122755,-0.017013,-0.550939
6.046229,0.179211,-0.030022,-0.548708
6.056269,0.147237,-0.029918,-0.548796
6.066279,0.164320,-0.019299,-0.547631
6.076319,0.182422,-0.021459,-0.555068
6.076319,0.182422,-0.021459,-0.555068
6.096369,0.179223,-0.017136,-0.563602
6.106379,0.179223,-0.004367,-0.546480
6.116419,0.179254,-0.012925,-0.550764
6.136469,0.165454,0.002025,-0.541117
6.136469,0.165454,0.002025,-0.541117
6.156520,0.154767,-0.001078,-0.555048
6.156520,0.154767,-0.001078,-0.555048
6.176570,0.137737,0.010755,-0.561449
6.186610,0.152639,0.002148,-0.558244
6.196620,0.165414,-0.002155,-0.560365
6.196620,0.165414,-0.002155,-0.560365
6.216670,0.159033,0.001054,-0.557163
6.216670,0.159033,0.001054,-0.557163
6.226710,0.144108,0.006498,-0.568929
6.236750,0.143029,-0.002072,-0.562563
6.246760,0.149406,-0.000960,-0.576427
6.256800,0.140888,-0.003113,-0.566847
6.276865,0.138740,-0.000900,-0.581797
6.286875,0.140859,-0.010563,-0.572223
6.296915,0.152551,-0.015885,-0.583966
6.306925,0.118461,-0.009362,-0.585098
6.316965,0.146144,-0.024444,-0.576547
6.326975,0.135482,-0.020087,-0.587238
6.347056,0.133316,-0.031822,-0.588368
6.347056,0.133316,-0.031822,-0.588368
6.357066,0.122635,-0.033867,-0.600157
6.367106,0.116270,-0.033943,-0.579879
6.377116,0.125847,-0.030694,-0.595860
6.387156,0.101342,-0.031718,-0.588456
6.397166,0.107699,-0.043466,-0.592766
6.427256,0.111951,-0.044522,-0.598101
6.427256,0.111951,-0.044522,-0.598101
6.437266,0.103444,-0.046711,-0.581043
6.447306,0.116216,-0.054238,-0.578907
6.457346,0.104487,-0.044488,-0.600258
6.467356,0.104507,-0.053168,-0.571457
6.487406,0.111969,-0.053197,-0.570368
6.487406,0.111969,-0.053197,-0.570368
6.497446,0.114067,-0.064946,-0.571486
6.507456,0.114062,-0.063853,-0.576822
6.517496,0.117284,-0.062866,-0.561853
6.527506,0.134315,-0.070392,-0.562910
6.537546,0.126843,-0.075718,-0.560820
6.557597,0.138593,-0.070452,-0.553285
6.567637,0.147092,-0.076856,-0.559701
6.577647,0.138651,-0.062019,-0.529744
6.587687,0.163116,-0.071640,-0.544677
6.597697,0.166317,-0.075972,-0.534006
6.607737,0.138636,-0.066281,-0.531901
6.627787,0.174846,-0.080317,-0.524389
6.627787,0.174846,-0.080317,-0.524389
6.637797,0.147180,-0.060979,-0.529716
6.647837,0.157797,-0.079194,-0.524431
6.657847,0.149331,-0.058891,-0.521154
6.667887,0.154629,-0.065275,-0.529715
6.677927,0.148242,-0.074972,-0.507346
6.707987,0.138696,-0.057854,-0.507292
6.707987,0.138696,-0.057854,-0.507292
6.718027,0.130176,-0.044920,-0.526482
6.728037,0.125927,-0.054644,-0.499834
6.738077,0.147229,-0.046054,-0.524304
6.748087,0.131268,-0.045004,-0.509388
6.768137,0.140880,-0.037560,-0.509326
6.768137,0.140880,-0.037560,-0.509326
6.778178,0.124925,-0.035453,-0.492269
6.788218,0.148330,-0.045090,-0.502932
6.798228,0.143050,-0.034454,-0.490078
6.808268,0.135586,-0.035498,-0.490103
6.818278,0.137688,-0.046184,-0.490148
6.838328,0.130263,-0.033345,-0.490108
6.838328,0.130263,-0.033345,-0.490108
6.848368,0.127095,-0.034504,-0.468758
6.858378,0.118587,-0.025917,-0.471945
6.868418,0.120718,-0.029153,-0.466614
6.878428,0.115418,-0.027076,-0.450595
6.888468,0.122884,-0.020652,-0.459090
6.918558,0.118644,-0.023943,-0.437753
6.918558,0.118644,-0.023943,-0.437753
6.928568,0.100520,-0.030333,-0.429287
6.938608,0.119707,-0.028249,-0.431361
6.948618,0.104833,-0.018655,-0.417470
6.958659,0.103743,-0.027190,-0.418582
6.978709,0.116528,-0.034757,-0.407900
6.978709,0.116528,-0.034757,-0.407900
6.988718,0.096298,-0.027216,-0.407920
6.998759,0.117612,-0.032666,-0.399341
7.008799,0.102706,-0.030512,-0.392963
7.018809,0.095238,-0.029384,-0.400456
7.028849,0.106972,-0.034843,-0.383358
7.058909,0.098454,-0.034840,-0.378040
7.058909,0.098454,-0.034840,-0.378040
7.068949,0.097374,-0.036947,-0.383394
7.078959,0.085670,-0.036970,-0.370608
7.088999,0.095265,-0.031626,-0.378034
7.099009,0.089942,-0.034858,-0.368450
7.119059,0.096331,-0.037015,-0.368442
7.119059,0.096331,-0.037015,-0.368442
7.129099,0.099571,-0.030699,-0.351312
7.139139,0.080352,-0.031603,-0.372734
7.149149,0.077194,-0.028485,-0.352432
7.159190,0.078254,-0.026317,-0.359896
7.169199,0.088904,-0.030634,-0.357751
7.209299,0.065520,-0.012448,-0.348115
7.209299,0.065520,-0.012448,-0.348115
7.219340,0.084705,-0.012510,-0.348063
7.229349,0.099589,-0.026447,-0.347019
7.239390,0.062338,-0.009254,-0.343836
7.249430,0.080435,-0.016784,-0.344890
7.259440,0.109196,-0.027602,-0.335248
7.269505,0.081511,-0.014666,-0.341672
7.279515,0.075130,-0.011457,-0.338470
7.289555,0.101749,-0.024389,-0.332049
7.299565,0.086846,-0.020089,-0.327797
7.309605,0.078352,-0.012621,-0.320307
7.329655,0.093230,-0.033001,-0.311817
7.339665,0.077296,-0.013726,-0.311770
7.349705,0.096446,-0.023375,-0.317103
7.359746,0.096484,-0.024574,-0.289335
7.369755,0.103935,-0.022412,-0.299987
7.379796,0.102876,-0.024585,-0.291454
7.399846,0.097547,-0.029953,-0.281880
7.399846,0.097547,-0.029953,-0.281880
7.409855,0.097583,-0.023606,-0.269032
7.419896,0.084801,-0.022511,-0.265857
7.429905,0.093355,-0.021547,-0.249806
7.439946,0.096543,-0.021527,-0.256206
7.449956,0.091244,-0.021606,-0.235925
7.470036,0.099792,-0.020626,-0.223078
7.480046,0.108324,-0.020669,-0.219850
7.490086,0.099807,-0.020672,-0.213465
7.500096,0.103006,-0.027151,-0.200668
7.510136,0.096619,-0.029311,-0.191082
7.520146,0.090259,-0.020783,-0.183582
7.540196,0.093460,-0.029422,-0.165454
7.540196,0.093460,-0.029422,-0.165454
7.550236,0.082804,-0.028315,-0.166546
7.560246,0.078567,-0.019768,-0.164381
7.570286,0.075380,-0.021944,-0.153718
7.580327,0.075379,-0.025173,-0.148392
7.590336,0.074335,-0.024162,-0.135572
7.610386,0.067956,-0.019880,-0.133433
7.620427,0.074351,-0.024213,-0.124890
7.630436,0.066941,-0.012497,-0.113105
7.640477,0.066918,-0.018889,-0.116340
7.650487,0.065857,-0.018901,-0.113138
7.660527,0.049907,-0.012502,-0.100333
7.680577,0.046723,-0.008225,-0.099254
7.680577,0.046723,-0.008225,-0.099254
7.690617,0.048849,-0.016831,-0.087538
7.700627,0.042464,-0.011456,-0.090735
7.710667,0.030766,-0.006113,-0.083265
7.720677,0.040352,-0.007202,-0.085380
7.730717,0.044600,-0.017941,-0.075805
7.750767,0.035065,-0.008395,-0.055490
7.760777,0.019063,-0.008297,-0.065148
7.770817,0.017977,-0.010384,-0.074774
7.780827,0.004157,-0.009372,-0.053444
7.790867,0.012652,-0.011455,-0.070521
7.800908,-0.005411,-0.002954,-0.049167
7.820958,-0.004382,-0.011460,-0.057750
7.830967,-0.022468,-0.000732,-0.055613
7.841008,-0.008633,-0.009331,-0.053479
7.851018,-0.010753,-0.005052,-0.053464
7.861058,-0.019279,-0.005024,-0.053488
7.871068,-0.010757,-0.007193,-0.052406
7.891118,-0.003313,-0.011474,-0.055611
7.891118,-0.003313,-0.011474,-0.055611
7.901158,-0.023539,-0.003943,-0.053494
7.911198,-0.022491,-0.010354,-0.053522
7.921208,-0.035296,-0.012418,-0.059976
7.931248,-0.037426,-0.010260,-0.063177
7.941258,-0.032101,-0.010267,-0.065298
7.961308,-0.028931,-0.019883,-0.066403
7.971348,-0.046009,-0.016518,-0.088867
7.981358,-0.044922,-0.017665,-0.072846
7.991398,-0.012996,-0.025159,-0.090953
8.001408,-0.030032,-0.025154,-0.080318
8.011448,-0.035382,-0.026149,-0.092088
8.031498,-0.039646,-0.028286,-0.088905
8.031498,-0.039646,-0.028286,-0.088905
8.041539,-0.018396,-0.038918,-0.113466
8.051549,-0.030099,-0.035717,-0.104937
8.061589,-0.025814,-0.031489,-0.098496
8.071599,-0.024796,-0.037804,-0.118819
8.081639,-0.035424,-0.032480,-0.108141
8.101689,0.001826,-0.047512,-0.116655
8.111699,-0.009853,-0.034689,-0.110217
8.121739,-0.012000,-0.032481,-0.124100
8.131779,-0.002391,-0.034719,-0.109129
8.141789,0.008215,-0.046440,-0.121973
8.151829,0.003991,-0.035777,-0.115525
8.171879,-0.001299,-0.024033,-0.111211
8.171879,-0.001299,-0.024033,-0.111211
8.181889,0.009329,-0.032590,-0.115495
8.191929,0.037014,-0.041219,-0.116528
8.201939,0.032771,-0.035881,-0.113310
8.211979,0.037070,-0.028469,-0.102581
8.221989,0.029612,-0.030606,-0.097270
8.242070,0.035989,-0.035957,-0.099414
8.242070,0.035989,-0.035957,-0.099414
8.252080,0.032801,-0.030591,-0.102603
8.262120,0.027473,-0.031652,-0.100486
8.272152,0.013647,-0.020928,-0.100473
8.282192,0.017927,-0.018841,-0.092974
8.292202,0.038152,-0.028524,-0.091896
8.322292,0.038205,-0.021149,-0.070497
8.332302,0.043540,-0.014724,-0.077929
8.342342,0.068010,-0.028671,-0.081132
8.352382,0.051039,-0.017025,-0.048009
8.362392,0.068025,-0.024409,-0.078975
8.372432,0.053183,-0.013839,-0.045852
8.382442,0.056342,-0.020191,-0.059760
8.392482,0.054225,-0.020229,-0.050152
8.402492,0.055318,-0.013856,-0.043709
8.412532,0.055297,-0.019175,-0.048007
8.422542,0.038290,-0.006340,-0.040516
8.432582,0.048905,-0.018086,-0.048020
8.452633,0.027626,-0.010592,-0.037361
8.462673,0.034071,-0.001078,-0.021275
8.472683,0.024412,-0.016994,-0.036332
8.482723,0.022323,-0.013890,-0.013891
8.492733,0.021259,-0.003121,-0.032002
8.502773,0.019143,-0.007472,-0.013869
8.512783,0.010604,-0.007404,-0.022438
8.522823,-0.000057,-0.008437,-0.022473
8.532833,0.008498,0.000063,-0.019204
8.542873,-0.000036,-0.000962,-0.022437
8.552883,-0.010677,0.001173,-0.014979
8.562923,-0.000043,-0.002019,-0.024579
8.572963,-0.007488,0.001188,-0.020311
8.593013,-0.016004,0.005493,-0.021383
8.603023,-0.009609,0.004394,-0.019234
8.613063,-0.002156,0.007624,-0.029880
8.623073,-0.006340,0.023546,-0.006315
8.633113,0.012728,-0.002000,-0.037362
8.643123,0.002135,0.007524,-0.011709
8.653164,-0.014937,0.005484,-0.020311
8.663173,0.003182,0.005425,-0.020262
8.673214,-0.017066,0.008715,-0.024575
8.683254,-0.014979,-0.009462,-0.021450
8.693264,-0.020271,0.008751,-0.029925
8.703304,-0.026673,0.002329,-0.022495
8.713314,-0.020260,0.006559,-0.018185
8.733364,-0.029840,0.004399,-0.006471
8.743404,-0.011805,-0.006167,-0.042790
8.753414,-0.008560,-0.004173,-0.014998
8.763454,-0.008567,0.001232,-0.028860
8.773464,0.005279,-0.010631,-0.013922
8.783504,0.001028,-0.003116,-0.019240
8.793544,-0.002182,-0.007372,-0.020337
8.803554,0.002096,-0.004203,-0.016037
8.813594,0.001003,-0.011655,-0.020348
8.823604,-0.004277,-0.002097,-0.005363
8.833644,-0.000043,-0.005249,-0.019253
8.843654,-0.009594,0.001114,-0.003226
8.853695,0.006332,-0.011672,-0.020334
8.873745,-0.007487,-0.000968,-0.016048
8.883754,-0.013894,-0.011682,-0.004367
8.893795,-0.012845,-0.015942,-0.007588
8.903835,0.004228,-0.010673,-0.004312
8.913845,-0.013876,-0.006352,-0.002205
8.923885,-0.003251,-0.015978,-0.006494
8.933895,-0.001075,-0.003200,-0.000018
8.943935,0.011663,-0.019235,-0.005400
8.953945,0.000021,0.001012,0.011755
8.963985,0.017032,-0.005375,-0.004251
8.973995,0.023417,-0.013985,0.005340
8.984035,-0.002146,-0.007489,0.004231
8.994045,0.013858,-0.003284,0.007500
9.014095,0.008485,-0.013901,-0.002179
9.024135,0.013857,-0.000050,0.001106
9.034175,0.010652,-0.006478,0.007476
9.044185,0.009595,-0.000041,0.002163
9.054226,0.004226,-0.009590,-0.007511
9.064235,-0.002089,0.007412,0.014984
9.074276,-0.002173,-0.008481,-0.011796
9.084285,-0.009590,-0.003208,0.007436
9.094326,-0.014931,0.000079,-0.006450
9.104335,-0.001068,-0.003221,0.004255
9.114376,-0.007475,-0.005315,-0.000046
9.124385,-0.011721,0.001106,-0.000027
9.134426,0.002092,-0.009578,-0.008585
9.154476,-0.003184,0.005355,-0.001052
9.164516,-0.003211,-0.003178,-0.003229
9.174526,-0.008525,0.001101,-0.001087
9.184566,0.001048,-0.007489,0.002104
9.194576,0.009604,-0.001145,0.009635
9.204616,0.004282,-0.000075,0.012830
9.214626,0.007442,-0.007505,0.001053
9.224666,0.017036,-0.008619,0.004279
9.234676,0.009591,-0.007567,0.012809
9.244716,0.012773,-0.010761,0.008530
9.254757,-0.000005,-0.007526,0.010647
9.264790,0.002100,-0.014988,0.006344
9.274831,-0.000025,-0.017158,0.014874
9.294881,-0.006399,-0.010739,0.017023
9.304890,-0.006436,-0.016008,0.002043
9.314931,0.003169,-0.020387,0.018072
9.324940,-0.002158,-0.014990,0.009537
9.334981,-0.008573,-0.019215,0.004158
9.344991,-0.005334,-0.010738,0.015958
9.355031,-0.001127,-0.023501,0.002022
9.365071,-0.012800,-0.016084,0.022321
9.375081,0.001030,-0.016048,0.005268
9.385121,0.003129,-0.033187,0.014807
9.395131,-0.001112,-0.024625,0.013767
9.405171,-0.010689,-0.017103,0.010572
9.415181,0.002098,-0.023597,0.020190
9.445271,-0.013908,-0.021334,0.004133
9.455281,-0.011804,-0.041717,0.022203
9.465321,-0.004337,-0.030991,0.007319
9.475362,-0.018136,-0.027894,0.039342
9.485371,-0.013917,-0.029923,0.013707
9.495412,-0.005404,-0.039602,0.022230
9.505421,-0.001123,-0.033209,0.022272
9.515462,0.011617,-0.046020,0.012633
9.525471,0.001010,-0.037528,0.030803
9.535512,-0.003244,-0.024618,0.013761
9.545522,0.006284,-0.050299,0.017939
9.555562,-0.012849,-0.035316,0.024366
9.575612,0.016985,-0.042929,0.032958
9.585652,0.006295,-0.041715,0.009434
9.595662,0.008479,-0.035426,0.032970
9.605702,0.013779,-0.038581,0.019083
9.615712,0.009485,-0.049242,0.017953
9.625752,0.005289,-0.030051,0.027646
9.645802,-0.004327,-0.038563,0.027579
9.655812,0.006300,-0.041731,0.012639
9.665852,0.002063,-0.040725,0.028655
9.675862,-0.002195,-0.033185,0.017997
9.685902,0.003130,-0.036421,0.021201
9.685902,0.003130,-0.036421,0.021201
9.705952,0.003152,-0.028951,0.022304
9.726002,0.002082,-0.032166,0.025491
9.736043,0.001021,-0.026793,0.019104
9.746053,0.007401,-0.031075,0.016965
9.756093,-0.006401,-0.018271,0.028738
9.766103,0.003119,-0.033157,0.008397
9.776143,-0.000018,-0.022563,0.028735
9.786153,-0.009630,-0.021393,0.013759
9.796193,0.007400,-0.034304,0.022291
9.806233,-0.013850,-0.010746,0.023412
9.806233,-0.013850,-0.010746,0.023412
9.826283,-0.001104,-0.027884,0.025502
9.836293,-0.027719,-0.011733,0.015891
9.836293,-0.027719,-0.011733,0.015891
9.846333,-0.008551,-0.021437,0.022307
9.876393,-0.002161,-0.023599,0.023383
9.886433,-0.010660,-0.010731,0.018079
9.886433,-0.010660,-0.010731,0.018079
9.896443,-0.012791,-0.013958,0.024468
9.916524,-0.021316,-0.011779,0.021250
9.926533,-0.007459,-0.012907,0.024487
9.926533,-0.007459,-0.012907,0.024487
9.936574,-0.009601,-0.013943,0.019135
9.946584,-0.018121,-0.009628,0.015928
9.956624,-0.009606,-0.021469,0.029782
9.976674,-0.027693,-0.008585,0.027656
9.976674,-0.027693,-0.008585,0.027656
9.986684,-0.011746,-0.018203,0.018041
10.016774,-0.018148,-0.021391,0.019076
10.016774,-0.018148,-0.021391,0.019076
10.036824,-0.025584,-0.018213,0.029753
10.036824,-0.004312,-0.027838,0.018016
10.046864,-0.003241,-0.030013,0.025486
10.056874,-0.010668,-0.016091,0.022327
10.076924,-0.013886,-0.023556,0.022283
10.076924,-0.013886,-0.023556,0.022283
10.086964,-0.021343,-0.021391,0.021204
10.096974,-0.001128,-0.033193,0.019068
10.107014,-0.011755,-0.027870,0.029746
10.117024,-0.016042,-0.028858,0.015842
10.127064,-0.000052,-0.036461,0.031874
10.147115,-0.011808,-0.041707,0.020066
10.147115,-0.011808,-0.041707,0.020066
10.157155,-0.021366,-0.029934,0.021164
10.167165,-0.028838,-0.036338,0.025386
10.177205,-0.022466,-0.041673,0.020037
10.187215,-0.036302,-0.034147,0.018966
10.197255,-0.029909,-0.035241,0.020047
10.227315,-0.022438,-0.032066,0.021151
10.227315,-0.022438,-0.032066,0.021151
10.237355,-0.020310,-0.035292,0.024346
10.247395,-0.011787,-0.034232,0.020102
10.257405,-0.016041,-0.033170,0.024368
10.267466,-0.018179,-0.033143,0.020089
10.287516,-0.003259,-0.033186,0.019062
10.287516,-0.003259,-0.033186,0.019062
10.297526,-0.006433,-0.027867,0.025488
10.307566,-0.003245,-0.028925,0.021218
10.317576,-0.002184,-0.032142,0.023343
10.327616,-0.030962,-0.027737,0.014738
10.337626,-0.023500,-0.032073,0.023284
10.367717,-0.025627,-0.027774,0.019026
10.367717,-0.025627,-0.027774,0.019026
10.377757,-0.026713,-0.029861,0.009399
10.387767,-0.032007,-0.021336,0.016902
10.397807,-0.018203,-0.038452,0.013655
10.407817,-0.030941,-0.022417,0.019036
10.427867,-0.029921,-0.038434,0.017895
10.427867,-0.029921,-0.038434,0.017895
10.437907,-0.046946,-0.024461,0.010437
10.447917,-0.025673,-0.039476,0.009356
10.457957,-0.034150,-0.025600,0.016876
10.467967,-0.030983,-0.033056,0.010440
10.478007,-0.012893,-0.044872,0.012571
10.518107,-0.035275,-0.043721,0.010378
10.518107,-0.035275,-0.043721,0.010378
10.528148,-0.027798,-0.042723,0.020017
10.538157,-0.013975,-0.051281,0.013606
10.548198,-0.021428,-0.050204,0.016795
10.558207,-0.016121,-0.056614,0.013574
10.568248,-0.021436,-0.052335,0.015716
10.578257,-0.017145,-0.045972,0.022168
10.588298,0.000938,-0.056690,0.017894
10.598338,-0.008643,-0.052387,0.017888
10.608348,-0.000108,-0.053518,0.025384
10.618388,0.008378,-0.064189,0.017879
10.638438,-0.001198,-0.059902,0.021078
10.648448,0.004121,-0.065274,0.024272
10.658488,-0.010767,-0.049171,0.016829
10.668498,-0.004418,-0.066284,0.017834
10.678538,-0.014004,-0.069502,0.027406
10.688548,-0.026764,-0.053396,0.017833
10.708628,-0.020426,-0.074780,0.018818
10.708628,-0.020426,-0.074780,0.018818
10.718638,-0.016096,-0.054539,0.026403
10.728679,-0.004450,-0.076953,0.015647
10.738688,-0.009746,-0.070579,0.026345
10.748729,0.000909,-0.061984,0.008255
10.758738,0.015881,-0.069735,0.056329
10.778788,0.021143,-0.064155,0.001891
10.788829,0.013769,-0.062248,0.055291
10.798838,0.040295,-0.081350,0.011477
10.808879,0.021232,-0.062282,0.057448
10.818919,0.022278,-0.053606,0.028650
10.828929,0.042450,-0.078198,0.021112
10.848979,0.038216,-0.068583,0.023282
10.848979,0.038216,-0.068583,0.023282
10.859019,0.018017,-0.065445,0.051014
10.869029,0.026552,-0.049343,0.027614
10.879069,0.031834,-0.068603,0.031810
10.889079,0.000977,-0.054660,0.040336
10.899119,0.025437,-0.063187,0.020067
10.919169,0.021218,-0.048232,0.022263
10.929210,0.019107,-0.049369,0.038275
10.939219,0.005261,-0.041813,0.030795
10.949260,0.003127,-0.039645,0.025458
10.959269,-0.002185,-0.036449,0.030800
10.969310,-0.017113,-0.035303,0.024355
10.989360,0.009515,-0.038568,0.019072
10.989360,0.009515,-0.038568,0.019072
10.999369,-0.019201,-0.021428,0.027619
11.009410,-0.001154,-0.042805,0.019022
11.019419,-0.018213,-0.042729,0.014703
11.029460,-0.032036,-0.037400,0.026440
11.039500,-0.023506,-0.029902,0.015817
11.059550,-0.039467,-0.024546,0.023275
11.069560,-0.024632,-0.042632,-0.001338
11.079600,-0.025592,-0.023573,0.034001
11.089610,-0.021381,-0.027732,0.007287
11.099650,-0.036335,-0.037275,0.002928
11.109660,-0.052176,-0.005367,0.041491
11.129710,-0.029823,-0.012890,0.036176
11.129710,-0.029823,-0.012890,0.036176
11.139750,-0.014965,-0.017048,0.002014
11.149791,-0.030913,-0.019274,0.031870
11.159800,-0.009641,-0.020280,0.004150
11.169841,-0.020275,-0.022477,0.024407
11.179850,-0.036247,-0.016007,0.022257
11.209941,-0.015995,-0.012849,0.018055
11.209941,-0.015995,-0.012849,0.018055
11.219950,-0.012775,-0.008623,0.025561
11.229991,-0.005352,-0.018223,0.018059
11.240001,-0.011738,-0.019306,0.025513
11.250041,-0.010656,-0.009668,0.019153
11.270116,-0.028786,-0.012803,0.016951
11.270116,-0.028786,-0.012803,0.016951
11.280156,-0.034114,-0.010634,0.013742
11.290166,-0.028800,-0.020298,0.021189
11.300206,-0.042623,-0.008506,0.021206
11.310216,-0.024576,-0.032039,0.016872
11.320256,-0.035178,-0.018177,0.028659
11.350316,-0.026678,-0.020275,0.014785
11.350316,-0.026678,-0.020275,0.014785
11.360356,-0.010699,-0.027843,0.023339
11.370397,-0.011775,-0.032116,0.024384
11.380406,-0.010678,-0.023601,0.029769
11.390447,-0.008576,-0.031054,0.023330
11.410497,-0.000021,-0.018246,0.019141
11.410497,-0.000021,-0.018246,0.019141
11.420506,0.007421,-0.032214,0.031915
11.430547,0.005310,-0.025809,0.034075
11.440557,0.013828,-0.025812,0.028758
11.450597,0.009557,-0.031158,0.032994
11.460607,0.006388,-0.022619,0.036230
11.490697,0.002128,-0.018308,0.030897
11.490697,0.002128,-0.018308,0.030897
11.500737,-0.003188,-0.012946,0.029840
11.510747,-0.019200,-0.021433,0.028687
11.520787,-0.014917,-0.010737,0.022340
11.530797,-0.023407,-0.004363,0.035166
11.550847,-0.007432,-0.007608,0.033058
11.550847,-0.007432,-0.007608,0.033058
11.560887,-0.007426,-0.003316,0.028806
11.570897,0.006420,-0.006565,0.028828
11.580937,0.003216,-0.008685,0.027741
11.590947,0.005376,-0.001242,0.033124
11.600987,-0.002103,-0.001162,0.021353
11.631078,0.006436,-0.000152,0.027791
11.631078,0.006436,-0.000152,0.027791
11.641088,0.005392,0.004092,0.034217
11.651128,0.004280,-0.005455,0.021350
11.661138,0.001133,0.007325,0.031016
11.671178,-0.007428,0.003152,0.016018
11.691228,-0.003162,-0.000101,0.023491
11.691228,-0.003162,-0.000101,0.023491
11.701238,-0.006373,-0.003279,0.020263
11.711278,-0.009551,0.000978,0.025615
11.721318,-0.004224,0.000965,0.024562
11.731328,-0.005310,-0.005429,0.022392
11.741368,-0.001053,-0.006500,0.020262
11.761418,-0.002143,-0.011806,0.013825
11.761418,-0.002143,-0.011806,0.013825
11.771428,-0.014899,-0.005408,0.024502
11.781468,-0.021313,-0.010711,0.021255
11.791478,-0.003229,-0.020356,0.015918
11.801518,-0.023442,-0.013944,0.028711
11.811528,-0.015999,-0.014990,0.019113
11.821568,-0.005356,-0.019286,0.016985
11.831609,-0.022385,-0.013922,0.023373
11.841619,-0.023482,-0.021358,0.015857
11.851659,-0.013866,-0.016080,0.022318
11.861669,-0.012806,-0.016063,0.018048
11.871709,-0.004257,-0.017240,0.035158
11.881719,-0.003239,-0.023555,0.014835
11.891759,-0.012781,-0.015066,0.033008
11.901769,-0.009607,-0.009616,0.007405
11.911809,-0.002143,-0.018269,0.025545
11.921819,-0.013806,-0.001190,0.035207
11.931859,0.007412,-0.018184,0.001003
11.941899,-0.013809,-0.006565,0.042659
11.951909,0.004299,0.005260,0.013924
11.961949,0.001058,-0.007519,0.008513
11.971959,-0.008441,0.005145,0.047002
11.981999,-0.001110,-0.013859,-0.004341
11.992009,-0.009522,0.001965,0.042712
12.002049,-0.012747,0.008524,0.012824
12.012059,-0.016014,-0.014945,0.009499
12.022100,-0.045738,0.011709,0.039453
12.032109,-0.017074,-0.005264,-0.004345
12.042150,-0.017018,-0.003285,0.028779
12.052190,-0.029813,0.003235,0.013820
12.062200,-0.004233,-0.000082,0.020284
12.072240,-0.023444,-0.007475,0.015923
12.082250,-0.001077,-0.013966,0.018091
12.092290,-0.015967,-0.003243,0.019168
12.102300,-0.011718,-0.009674,0.021286
12.112340,0.003169,-0.019309,0.015941
12.122350,-0.017030,-0.002172,0.019170
12.132390,-0.001035,-0.000093,0.020293
12.142400,-0.002116,-0.005429,0.020265
12.152440,0.024511,-0.015152,0.025633
12.162480,0.015966,-0.013991,0.011728
12.182530,-0.006358,-0.005481,0.034139
12.182530,-0.006358,-0.005481,0.034139
12.192540,0.012795,-0.004369,0.011765
12.202580,0.001088,-0.004381,0.022415
12.212590,0.007523,0.007320,0.027829
12.222631,0.021338,-0.003369,0.020339
12.232640,-0.002095,0.002047,0.020300
12.252690,-0.002107,0.002082,0.012823
12.262731,-0.026539,0.025605,0.023548
12.272795,-0.012718,0.021360,0.008612
12.282805,-0.000968,0.023392,0.022540
12.292845,-0.003111,0.020205,0.020383
12.302855,0.001162,0.022312,0.023609
12.322905,0.004332,0.020236,0.008653
12.322905,0.004332,0.020236,0.008653
12.332945,-0.020103,0.037302,0.030031
12.342955,-0.002013,0.028714,0.026836
12.352995,-0.008490,0.009609,0.006431
12.363005,-0.032900,0.036290,0.026786
12.373045,0.000060,0.014890,0.012889
12.403135,0.002196,0.015946,0.013968
12.403135,0.002196,0.015946,0.013968
12.413145,-0.009505,0.015913,0.028891
12.423186,-0.010617,0.008522,0.011761
12.433195,-0.004204,0.010597,0.020335
12.443236,-0.008496,-0.000068,0.020272
12.463286,-0.008494,-0.000074,0.021340
12.463286,-0.008494,-0.000074,0.021340
12.473295,-0.003204,-0.010740,0.014895
12.483336,-0.006399,-0.010739,0.017023
12.493376,-0.007423,0.008522,0.009634
12.503386,0.010582,-0.029957,0.004160
12.513426,-0.016982,-0.003401,0.053348
12.523436,0.019095,-0.027788,-0.008624
12.533476,-0.008591,-0.028852,0.009454
12.543486,-0.002125,-0.012940,0.027706
12.553526,-0.001169,-0.041681,0.007277
12.563536,-0.010713,-0.035339,0.027577
12.573576,-0.024632,-0.038325,-0.008795
12.583586,-0.029925,-0.040575,0.018953
12.603636,-0.046975,-0.037296,0.014649
12.603636,-0.046975,-0.037296,0.014649
12.613676,-0.036384,-0.050045,-0.006747
12.623717,-0.041636,-0.038422,0.023204
12.633726,-0.032104,-0.047958,0.000753
12.643767,-0.025677,-0.043773,0.014677
12.653776,-0.017151,-0.042722,0.012569
12.673826,-0.022505,-0.049087,0.007183
12.683867,-0.011790,-0.035300,0.020096
12.693876,-0.002271,-0.051259,0.000819
12.703917,-0.010721,-0.034235,0.020104
12.713926,0.007358,-0.044943,0.013695
12.723967,0.012711,-0.042880,0.025469
12.734007,0.008407,-0.044891,0.001947
12.744017,0.022296,-0.047198,0.028680
12.754057,-0.007523,-0.024553,0.003068
12.764067,0.015926,-0.036483,0.025509
12.774107,-0.000063,-0.024578,0.003088
12.784117,0.008475,-0.023563,0.008458
12.794157,0.001035,-0.024682,0.024455
12.814207,-0.007467,-0.007497,0.009558
12.814207,-0.007467,-0.007497,0.009558
12.824217,0.006399,-0.008650,0.018136
12.834257,0.012704,-0.028855,-0.004374
12.844298,-0.015936,-0.007651,0.047989
12.854307,0.009537,-0.004166,-0.028835
12.864348,0.002153,-0.008692,0.029875
12.884398,0.006359,-0.010680,-0.004306
12.884398,0.006359,-0.010680,-0.004306
12.894407,-0.017024,-0.000036,0.019181
12.904448,-0.001071,-0.004288,0.004250
12.914457,-0.008518,-0.002154,0.009580
12.924498,-0.024473,0.005338,0.017049
12.934508,-0.009623,-0.006336,-0.008602
12.944548,-0.020209,0.002090,0.023455
12.954588,-0.027704,0.000070,0.004197
12.964598,-0.011722,-0.005352,0.010624
12.974638,-0.015985,-0.001031,0.003156
12.984648,-0.025560,0.000022,0.012748
12.994688,-0.029860,-0.010618,0.007345
13.004698,-0.026631,-0.003188,0.014866
13.024748,-0.007462,-0.008590,0.014894
13.034788,-0.018117,-0.005331,0.010607
13.044798,-0.001098,-0.017129,0.009530
13.054838,-0.012825,-0.018159,0.009493
13.064879,-0.007509,-0.023521,0.010550
13.074888,-0.020279,-0.017077,0.011614
13.094938,-0.036289,-0.016954,-0.003385
13.104979,-0.032022,-0.020212,0.005157
13.114988,-0.035249,-0.027647,-0.001296
13.125029,-0.039495,-0.025533,0.006179
13.135039,-0.028864,-0.026559,-0.009819
13.145079,-0.039519,-0.032998,0.004008
13.155089,-0.045941,-0.038276,-0.004581
13.165129,-0.045911,-0.026524,-0.005593
13.175169,-0.048059,-0.028618,-0.013087
13.185179,-0.036311,-0.028732,0.002968
13.195219,-0.023557,-0.035125,-0.008777
13.205229,-0.026737,-0.034092,0.000833
13.215269,-0.027807,-0.029766,-0.009832
13.235319,-0.025686,-0.034050,-0.008778
13.245329,-0.028827,-0.016983,-0.002296
13.255369,-0.014983,-0.020222,-0.004410
13.265379,-0.017135,-0.027690,-0.004451
13.275439,-0.025584,-0.004209,0.004182
13.285480,-0.004336,-0.014836,-0.021446
13.305530,-0.036284,-0.009428,-0.014032
13.315539,-0.034151,-0.021288,0.008351
13.325580,-0.043741,-0.006185,-0.017242
13.335590,-0.033085,-0.018063,0.003028
13.345630,-0.021339,-0.009552,0.002032
13.355640,-0.026686,-0.013786,-0.002275
13.365680,-0.023490,-0.017026,0.003059
13.375690,-0.022457,-0.025542,-0.003388
13.385730,-0.023491,-0.019177,0.006254
13.395770,-0.015004,-0.027697,-0.004445
13.405780,-0.006470,-0.032058,0.008376
13.415820,-0.009680,-0.030929,-0.002309
13.425830,-0.011769,-0.024595,0.014806
13.445880,0.008381,-0.052351,-0.001293
13.455920,-0.010748,-0.042769,0.017928
13.465930,0.018986,-0.070530,-0.003486
13.475970,0.000905,-0.072744,0.025296
13.485980,-0.003389,-0.070478,0.000725
13.496020,0.012564,-0.083350,0.001777
13.516071,0.017854,-0.098323,0.002789
13.526111,0.004009,-0.097236,0.008097
13.536121,-0.001312,-0.096166,0.011292
13.546161,0.019972,-0.103675,0.003838
13.556171,0.009344,-0.096195,0.010253
13.566211,0.012526,-0.102618,0.011300
13.576221,0.026357,-0.105816,0.000640
13.576221,0.026357,-0.105816,0.000640
13.596271,0.011468,-0.095099,0.002786
13.606311,0.018953,-0.090892,0.011373
13.616321,0.010446,-0.084462,0.012448
13.616321,0.010446,-0.084462,0.012448
13.636401,0.004070,-0.085580,0.027380
13.656451,0.004030,-0.085453,0.000675
13.656451,0.004030,-0.085453,0.000675
13.676501,0.014686,-0.081170,-0.008889
13.676501,0.014686,-0.081170,-0.008889
13.696551,-0.009755,-0.059778,0.000758
13.706561,0.009396,-0.071582,-0.000313
13.726611,0.000859,-0.067212,-0.015271
13.736652,0.000859,-0.062020,0.021053
13.736652,-0.006533,-0.062020,0.021053
13.746692,-0.019313,-0.049083,0.003987
13.756702,0.009420,-0.058732,-0.007729
13.766742,-0.003332,-0.054499,0.009347
13.776752,-0.007625,-0.059780,-0.000304
13.806842,-0.079031,-0.034778,-0.044180
13.806842,-0.079031,-0.034778,-0.044180
13.816852,-0.024810,-0.046378,-0.112450
13.826892,0.180714,-0.107893,-0.117514
13.836902,-0.092862,-0.022960,-0.049503
13.846942,0.012535,-0.061713,-0.056873
13.866992,-0.059932,-0.050728,-0.071976
13.866992,-0.059932,-0.050728,-0.071976
13.877032,-0.022635,-0.059448,-0.060164
13.887042,-0.016262,-0.051862,-0.087884
13.897082,-0.025893,-0.067865,-0.084781
13.907092,-0.035425,-0.057250,-0.064462
13.917133,-0.058838,-0.050822,-0.052746
13.937183,-0.010955,-0.062578,-0.083647
13.947192,-0.022671,-0.057180,-0.087927
13.957233,0.077474,-0.083232,-0.067477
13.967273,0.130742,-0.093032,-0.064172
13.977283,-0.094133,-0.058933,-0.120179
13.987323,-0.035455,-0.015146,-0.160402
14.007373,-0.057670,0.040414,-0.150586
14.007373,-0.057670,0.040414,-0.150586
14.017383,0.046516,-0.056044,-0.149686
14.027423,0.009187,-0.060149,-0.159423
14.037433,-0.230485,0.017769,-0.212059
14.047473,-0.121630,0.078363,-0.227495
14.057483,0.267717,0.182693,-0.198152
14.077563,-1.355969,-0.481761,1.401878
14.087573,-0.412268,0.269742,1.054463
14.097613,0.597016,0.188050,0.475758
14.107623,0.807427,-0.220957,0.101599
14.117664,0.431218,-0.168085,0.018556
14.127673,-0.085248,0.002382,0.006185
14.147723,-0.284432,0.051122,-0.001613
14.157764,0.058473,-0.057899,0.008433
14.167773,0.028626,-0.054553,-0.001247
14.177814,-0.038365,-0.002042,0.006294
14.187854,0.014870,-0.013891,-0.008570
14.197864,0.001008,-0.023518,0.004164
14.217914,-0.000027,-0.007455,-0.004308
14.227954,-0.007439,0.004266,0.006409
14.237964,0.006352,-0.016045,0.001010
14.248004,-0.010672,-0.009617,0.008471
14.258014,0.025642,0.023416,-0.000887
14.268072,-0.004316,-0.020287,0.002029
14.288122,0.035132,-0.015070,0.001094
14.288122,0.035132,-0.015070,0.001094
14.298132,-0.010639,0.001052,0.010658
14.308172,0.006403,0.001032,0.003227
14.318213,0.063949,-0.004520,0.008701
14.328222,-0.027733,-0.011688,0.006277
14.338263,0.013850,-0.009722,0.013879
14.368322,0.029828,-0.007593,0.004319
14.368322,0.029828,-0.007593,0.004319
14.378363,0.031936,-0.020450,0.011742
14.388372,-0.012820,-0.012789,0.003109
14.398413,0.013844,-0.006473,0.004280
14.408422,0.015951,-0.015018,0.003178
14.428503,-0.025598,-0.012783,0.010551
14.428503,-0.025598,-0.012783,0.010551
14.438513,0.030825,-0.025690,-0.008582
14.448553,-0.003230,-0.018200,0.011655
14.458563,-0.029899,-0.016960,-0.006572
14.468603,0.036124,-0.046079,0.008428
14.478613,-0.054388,-0.012649,0.001926
14.508703,-0.032085,-0.045863,0.009308
14.508703,-0.032085,-0.045863,0.009308
14.518713,-0.005386,-0.020268,-0.001179
14.528753,-0.000071,-0.031015,0.009467
14.538794,-0.030995,-0.030864,-0.001300
14.548803,0.022256,-0.045994,-0.000156
14.578894,-0.018173,-0.020237,0.000922
14.578894,-0.018173,-0.020237,0.000922
14.588903,0.009474,-0.039514,-0.006570
14.598944,-0.030982,-0.035212,0.014703
14.608953,-0.006433,-0.012784,-0.002215
14.618994,0.008440,-0.032071,0.000940
14.639044,-0.005459,-0.049123,0.002957
14.639044,-0.005459,-0.049123,0.002957
14.649084,0.000992,-0.025624,-0.002255
14.659094,-0.013906,-0.020261,0.003070
14.669134,-0.013936,-0.029862,0.000888
14.679144,0.009537,-0.022478,0.004193
14.689184,-0.029965,-0.041527,-0.005620
14.719244,0.018034,-0.032107,0.002034
14.719244,0.018034,-0.032107,0.002034
14.729284,-0.007522,-0.021324,-0.002258
14.739294,0.000978,-0.032041,-0.000149
14.749334,0.001006,-0.024591,0.005228
14.759375,-0.003232,-0.014961,0.004193
14.779425,0.027641,-0.027876,0.004217
14.789434,-0.026660,-0.008482,0.005227
14.799475,-0.000045,-0.012785,-0.006470
14.809485,0.017079,0.003093,0.011812
14.819525,-0.043746,-0.010477,-0.012989
14.829535,0.006309,-0.034220,0.005197
14.849585,-0.002200,-0.026706,0.003072
14.859625,-0.011677,0.012818,0.007506
14.869665,-0.019254,-0.020183,-0.009763
14.879675,0.007528,0.018075,0.011857
14.889715,-0.024504,0.006512,-0.005378
14.899725,0.008501,-0.018258,0.015960
14.929815,0.006449,0.020275,-0.000954
14.929815,0.006449,0.020275,-0.000954
14.939825,0.020218,-0.013969,0.004263
14.949865,-0.014871,0.010662,0.013896
14.959875,0.006377,-0.007506,0.002119
14.969915,0.006425,0.006346,0.008593
14.989965,-0.000018,-0.010715,0.007427
14.989965,-0.000018,-0.010715,0.007427
15.000006,-0.014903,0.004300,0.004252
15.010016,0.018103,-0.007550,0.003219
15.020056,-0.023430,0.006484,-0.000034
15.030066,0.009544,-0.018191,0.001009
15.040106,-0.020246,0.001129,0.001018
15.060156,-0.011704,0.002128,0.009592
15.060156,-0.011704,0.002128,0.009592
15.070166,-0.016014,-0.008481,-0.002221
15.080206,-0.009628,-0.016013,0.005239
15.090216,-0.016003,-0.005283,-0.001137
15.100256,0.020210,-0.017173,0.004247
15.110296,-0.029824,0.002192,0.008474
15.140356,-0.026688,-0.014859,-0.001212
15.140356,-0.026688,-0.014859,-0.001212
15.150396,0.008489,-0.017145,0.006352
15.160406,-0.013827,0.008573,0.003207
15.170446,0.006351,-0.017118,0.002073
15.180456,-0.015946,0.010696,0.007484
15.200506,-0.010687,-0.011723,0.002051
15.200506,-0.010687,-0.011723,0.002051
15.210547,-0.010608,0.017111,0.002188
15.220587,-0.003215,-0.007475,0.002092
15.230597,-0.027651,0.017136,0.008550
15.240637,0.006389,0.003229,-0.009581
15.250647,-0.001055,0.002124,0.003212
15.280757,-0.021242,0.019226,0.013919
15.280757,-0.021242,0.019226,0.013919
15.290767,-0.017047,0.007576,-0.009625
15.300807,0.018088,-0.020430,0.017045
15.310817,-0.038259,0.039633,0.001150
15.320857,0.020187,-0.017102,-0.010707
15.340907,-0.079846,0.035527,-0.005394
15.350947,0.021228,-0.036414,0.007364
15.360957,0.025623,0.009473,0.011866
15.370997,-0.033088,-0.011589,-0.010828
15.381007,0.028787,-0.011977,0.028865
15.391047,-0.037320,0.000177,-0.011853
15.411098,-0.025579,0.000083,-0.000070
15.421107,0.011631,-0.033139,-0.001193
15.431148,0.003209,-0.000046,0.007486
15.441188,-0.039525,-0.028671,-0.007722
15.451198,0.006335,-0.028916,0.012699
15.461238,-0.029869,-0.006280,-0.006522
15.481288,-0.033091,-0.016964,-0.003376
15.491298,-0.000133,-0.048052,-0.001296
15.501338,-0.022439,-0.019135,-0.003357
15.511348,-0.001164,-0.036311,0.000893
15.521388,-0.018226,-0.035147,-0.007694
15.531398,-0.038483,-0.041525,-0.000303
15.551478,-0.001186,-0.042704,-0.002342
15.561488,-0.039493,-0.022309,0.001922
15.571528,-0.004391,-0.044824,-0.003429
15.581538,-0.015048,-0.049101,0.005067
15.591578,-0.024580,-0.027717,0.006210
15.601588,-0.006487,-0.038465,0.008346
15.621638,-0.014977,-0.026705,0.011583
15.621638,-0.014977,-0.026705,0.011583
15.631679,-0.011863,-0.050149,-0.001338
15.641688,0.005244,-0.036372,0.009456
15.651729,-0.017066,-0.006367,0.003127
15.661769,0.011607,-0.043833,0.001961
15.671779,0.011647,-0.031033,0.005226
15.691829,-0.000123,-0.044853,-0.000213
15.701869,0.006395,-0.006484,0.011737
15.711879,-0.015986,-0.003182,0.006350
15.721919,-0.003268,-0.029927,0.007327
15.731929,0.006392,-0.002167,0.002144
15.741969,0.021271,-0.017161,0.001046
15.762019,0.015954,-0.015028,0.005314
15.772059,-0.011688,0.011775,0.002160
15.782069,0.014886,-0.012864,-0.000020
15.792109,-0.030928,-0.010609,0.006274
15.802119,-0.005330,-0.001056,0.001048
15.812160,-0.005310,0.006420,0.001084
15.832210,-0.012760,0.010721,0.000015
15.832210,-0.012760,0.010721,0.000015
15.842219,0.006366,-0.011778,0.002098
15.852260,-0.029804,0.006439,0.013835
15.862269,0.011730,0.002098,0.000042
15.872310,0.001094,0.007447,0.005379
15.882319,-0.019182,0.002208,-0.002179
15.902400,-0.010610,0.018194,-0.001011
15.912410,-0.013875,-0.005279,-0.003268
15.922450,-0.032961,0.024634,0.007503
15.932460,-0.014873,0.019286,-0.003155
15.942500,-0.027686,0.009706,-0.001099
15.952510,-0.034061,0.020437,-0.007475
15.972560,-0.021242,0.028918,-0.003127
15.982600,-0.009564,0.013945,-0.006370
15.992610,-0.060708,0.016221,-0.001159
16.002650,-0.005267,0.025673,-0.005234
16.012691,-0.036219,0.009754,-0.005395
16.022700,-0.056421,0.029058,-0.008564
16.032741,0.014949,0.014943,-0.008434
16.042750,-0.048953,0.025779,0.002123
16.052791,-0.034050,0.026865,-0.011717
16.062800,0.016004,0.003127,0.005400
16.072841,-0.067112,0.014116,-0.003323
16.082850,0.018157,0.013824,0.000116
16.092891,-0.030857,0.020406,-0.003193
16.112941,-0.008478,0.017109,0.001126
16.122981,0.001073,0.002127,0.001081
16.132991,0.009627,0.008477,0.007544
16.143031,-0.002115,0.003185,0.005350
16.153041,0.003211,0.004256,0.001097
16.163081,0.028786,0.000954,0.004357
16.183131,-0.003178,0.006413,0.001090
16.193141,0.026664,0.002009,0.008629
16.203181,-0.028746,0.006461,0.008497
16.213191,0.036248,-0.000153,0.007577
16.223231,0.008519,-0.007544,0.008534
16.233272,0.010724,0.022377,0.003340
16.253322,0.001077,-0.001117,0.009612
16.263331,0.011741,0.003140,0.005388
16.273406,0.044778,-0.001269,0.011868
16.283415,0.006426,0.007419,0.007530
16.293456,0.017060,0.000997,0.003257
16.303466,0.040464,-0.015098,0.003245
16.313506,-0.019176,-0.001041,0.007420
16.323516,0.018137,0.007422,-0.000983
16.333556,0.021299,-0.007555,0.002160
16.343596,-0.033006,0.014006,-0.003230
16.353606,0.041526,-0.012935,-0.003151
16.363646,-0.021358,-0.017033,0.003065
16.373656,-0.036226,0.008702,-0.008605
16.393706,-0.041602,-0.011602,-0.002306
16.403746,0.002100,-0.007447,-0.007507
16.413756,-0.011785,-0.022388,-0.000138
16.423796,-0.042657,-0.006244,-0.005489
16.433806,0.006354,-0.013894,-0.002185
16.443846,-0.036303,-0.022294,-0.003410
16.463896,-0.004333,-0.025616,-0.000133
16.473937,-0.033109,-0.023372,-0.003407
16.483946,-0.006457,-0.024557,0.003071
16.493987,-0.000076,-0.027766,-0.000132
16.503997,-0.024608,-0.037323,0.005096
16.514037,-0.003285,-0.033105,0.001971
16.534087,-0.045962,-0.048981,0.000709
16.544097,0.062717,-0.054618,-0.010767
16.554137,-0.015065,-0.078133,0.046590
16.564147,-0.193024,-0.025940,-0.028430
16.574187,0.009387,-0.041392,-0.061058
16.584227,0.203277,-0.107464,0.002190
16.594237,-0.071663,-0.074366,-0.033664
16.604277,-0.170650,-0.039992,-0.008138
16.614287,-0.146111,-0.048772,0.025003
16.624327,-0.029989,-0.044680,-0.016317
16.634337,0.136347,-0.054067,0.048191
16.644377,-0.096254,-0.102048,-0.034932
16.654387,-0.028963,-0.076873,0.015579
16.674437,-0.006648,-0.101513,0.016593
16.684477,-0.010749,-0.037378,0.007271
16.694518,-0.023681,-0.076744,-0.015383
16.704528,0.056323,-0.077221,0.030769
16.714568,-0.041723,-0.057538,0.000681
16.724578,0.036078,-0.066400,0.014741
16.744628,0.010539,-0.053517,0.017936
16.744628,0.010539,-0.053517,0.017936
16.754668,-0.002307,-0.067303,0.006085
16.764678,0.006264,-0.053468,0.010447
16.774718,0.016971,-0.032113,0.004168
16.784728,0.007310,-0.062025,0.012545
16.794768,-0.023503,-0.027756,0.013691
16.814818,0.007414,-0.030038,0.023379
16.824858,-0.008561,-0.014944,0.004178
16.834868,0.032948,-0.041827,0.014848
16.844908,0.004231,-0.017146,0.009545
16.854918,-0.009702,-0.045940,0.010438
16.864958,-0.004320,-0.026735,0.010544
16.885008,0.002113,-0.017185,0.019152
16.895018,-0.012806,-0.011756,0.010591
16.905059,-0.024620,-0.041595,0.005076
16.915099,0.004244,-0.013958,0.012764
16.925109,0.003198,-0.004323,0.008534
16.935149,-0.001117,-0.024609,0.010563
16.955199,-0.009625,-0.017101,0.009506
16.965209,-0.025579,-0.008536,0.015912
16.975249,-0.032061,-0.034090,0.004023
16.985259,0.007458,-0.001092,0.000015
16.995299,-0.037191,0.033161,0.013941
17.005309,-0.069218,0.019427,0.004173
17.025389,-0.074692,-0.030722,-0.001420
17.035399,-0.076728,0.005604,-0.003390
17.045439,0.023434,-0.005421,0.001107
17.055449,-0.074643,-0.012568,-0.001334
17.065489,-0.074576,0.015229,-0.007612
17.075499,0.001013,-0.023533,0.007369
17.095549,-0.038436,-0.024438,-0.000222
17.105590,-0.008545,-0.007453,0.001009
17.115599,-0.054426,-0.025454,-0.000271
17.125640,-0.011774,-0.022424,0.007339
17.135680,-0.005397,-0.023467,-0.002262
17.145690,-0.017094,-0.021359,0.011602
17.155730,-0.008566,-0.014928,0.000974
17.165740,0.023394,-0.021450,0.003168
17.175780,-0.023492,-0.021328,0.009448
17.185790,0.017020,-0.015032,0.005317
17.195830,0.008521,-0.005398,0.006407
17.205840,0.003153,-0.022493,0.011653
17.215880,-0.022344,0.008571,0.009593
17.235930,-0.005321,-0.006471,0.017046
17.245940,-0.020222,0.008594,0.003189
17.255980,0.028728,-0.021482,0.006387
17.266020,-0.004270,-0.005351,0.005304
17.276044,-0.000006,-0.006443,0.007447
17.286084,0.033043,-0.002274,0.006490
17.296094,0.009556,-0.017153,0.007423
17.296094,0.009556,-0.017153,0.007423
17.306135,0.003186,-0.010745,0.011708
17.326185,0.011744,0.003130,0.007525
17.336194,-0.010713,-0.024568,0.008400
17.346235,0.017089,0.008448,0.008633
17.346235,0.017089,0.008448,0.008633
17.366285,-0.023519,-0.026627,0.000877
17.386335,-0.002180,-0.018153,0.000976
17.386335,-0.002180,-0.018153,0.000976
17.406385,-0.012786,0.004339,-0.005356
17.416425,0.030831,-0.031096,0.005279
17.426435,-0.008558,-0.009568,-0.003274
17.436475,-0.001136,-0.027783,0.004138
17.446485,0.003174,-0.010710,0.004231
17.446485,0.003174,-0.010710,0.004231
17.466535,-0.022440,-0.022364,0.001969
17.476575,-0.002221,-0.030948,-0.003357
17.486615,-0.010760,-0.034114,-0.005532
17.496625,-0.019241,-0.016994,-0.006543
17.496625,-0.019241,-0.016994,-0.006543
17.506666,-0.011850,-0.039420,-0.011970
17.536725,-0.024680,-0.051100,-0.017401
17.536725,-0.024680,-0.051100,-0.017401
17.556775,-0.032088,-0.030775,-0.019462
17.556775,-0.032088,-0.030775,-0.019462
17.566816,-0.034226,-0.037211,-0.012021
17.576825,-0.042717,-0.023290,-0.014115
17.606916,-0.042739,-0.030761,-0.015219
17.606916,-0.042739,-0.030761,-0.015219
17.616956,-0.021427,-0.027586,-0.023690
17.626966,-0.007538,-0.018045,-0.018266
17.637006,-0.020357,-0.026526,-0.022614
17.647016,-0.015044,-0.034034,-0.019430
17.677106,-0.007589,-0.035116,-0.021551
17.677106,-0.007589,-0.035116,-0.021551
17.687116,-0.009706,-0.031926,-0.017269
17.697156,-0.011796,-0.015890,-0.019336
17.707197,0.016909,-0.039457,-0.023641
17.717206,-0.021436,-0.032945,-0.019443
17.737256,0.012663,-0.030880,-0.027885
17.747297,-0.022539,-0.043596,-0.024837
17.757306,-0.009723,-0.034026,-0.024757
17.767347,-0.002285,-0.039365,-0.030103
17.777356,-0.012915,-0.028646,-0.031149
17.787397,0.011549,-0.047958,-0.029037
17.817487,0.009471,-0.027656,-0.030015
17.817487,0.009471,-0.027656,-0.030015
17.827497,0.010490,-0.045824,-0.027961
17.837537,0.011584,-0.035143,-0.028976
17.847547,0.015837,-0.038356,-0.030048
17.857587,0.028664,-0.023436,-0.032078
17.887647,0.036106,-0.030941,-0.031025
17.887647,0.036106,-0.030941,-0.031025
17.897687,0.030763,-0.034112,-0.034259
17.907697,0.015820,-0.042612,-0.033272
17.917737,0.009475,-0.023359,-0.035335
17.927747,0.030767,-0.029815,-0.039580
17.947828,0.008388,-0.027596,-0.041768
17.957837,-0.000191,-0.042484,-0.049339
17.967878,-0.006532,-0.025397,-0.045003
17.977887,0.013733,-0.016894,-0.050248
17.987928,-0.007669,-0.049946,-0.047259
17.997938,-0.018273,-0.028537,-0.050392
18.017988,0.017994,-0.019054,-0.048110
18.028028,0.004123,-0.025421,-0.047110
18.038038,0.011579,-0.027587,-0.046032
18.048078,0.033994,-0.014839,-0.046978
18.058118,0.022285,-0.010539,-0.044853
18.068128,0.014809,-0.016928,-0.043836
18.098218,0.023401,0.006534,-0.042633
18.098218,0.023401,0.006534,-0.042633
18.108228,0.037219,-0.010628,-0.036267
18.118268,-0.006440,0.006626,-0.041647
18.128278,0.006327,0.003426,-0.051241
18.138318,0.008503,0.010819,-0.035176
18.158368,0.020197,0.008721,-0.051177
18.158368,0.020197,0.008721,-0.051177
18.168409,-0.027735,0.016327,-0.045933
18.178418,-0.001066,0.028012,-0.051145
18.188459,0.014942,0.036509,-0.052128
18.198469,-0.035215,0.014255,-0.054509
18.208509,-0.002139,0.030192,-0.059683
18.228559,-0.035176,0.036753,-0.069357
18.238569,-0.002140,0.034504,-0.068208
18.248609,-0.029882,0.019613,-0.061946
18.258619,-0.036308,0.015423,-0.074802
18.268659,0.000000,0.037701,-0.068187
18.278717,-0.022422,0.029286,-0.080039
18.298767,-0.030940,0.033596,-0.082179
18.298767,-0.030940,0.033596,-0.082179
18.308777,-0.008615,0.015389,-0.086476
18.318817,-0.050157,0.022989,-0.084419
18.328827,-0.024657,0.000535,-0.096205
18.338867,-0.029965,0.000487,-0.082333
18.348877,-0.050172,0.023034,-0.094032
18.368927,-0.034245,0.001629,-0.095158
18.378967,-0.023661,-0.022948,-0.099518
18.389008,-0.016129,0.000502,-0.095113
18.399018,-0.007648,-0.011232,-0.103691
18.409058,0.010454,-0.019855,-0.099409
18.419068,-0.020454,-0.016525,-0.104820
18.439118,-0.013003,-0.021904,-0.101620
18.449158,0.007235,-0.024086,-0.105847
18.459168,0.043452,-0.032757,-0.103652
18.469208,0.000833,-0.027274,-0.104812
18.479218,0.001826,-0.048590,-0.114524
18.489258,0.066879,-0.033845,-0.115342
18.509308,0.011437,-0.041141,-0.115530
18.509308,0.011437,-0.041141,-0.115530
18.519348,0.045511,-0.050848,-0.118686
18.529358,0.041323,-0.024141,-0.117503
18.539398,0.060454,-0.042348,-0.119673
18.549408,0.050874,-0.038045,-0.119679
18.559448,0.019935,-0.042155,-0.132603
18.579498,0.053018,-0.025166,-0.134567
18.589508,0.019912,-0.045314,-0.142232
18.599549,0.053019,-0.020859,-0.142025
18.609558,0.032776,-0.013277,-0.150590
18.619599,0.056171,-0.032576,-0.150617
18.629639,0.010385,-0.018559,-0.147473
18.649689,0.069062,0.009072,-0.158930
18.659699,0.050877,-0.013280,-0.162291
18.669739,0.007163,-0.017395,-0.165636
18.679749,0.044492,-0.006826,-0.167619
18.689789,0.042430,0.020967,-0.171766
18.699799,0.048745,-0.011117,-0.166559
18.719849,0.025314,0.007220,-0.188970
18.729889,0.085036,0.016602,-0.181283
18.739929,-0.003453,0.006205,-0.180508
18.749939,0.025298,0.000807,-0.187932
18.759979,0.054181,0.040232,-0.188734
18.769989,0.007231,0.019016,-0.186827
18.790039,0.064750,0.014628,-0.201644
18.790039,0.064750,0.014628,-0.201644
18.800080,-0.000226,0.024415,-0.194300
18.810089,0.009318,0.015917,-0.210337
18.820130,0.052993,-0.000310,-0.196406
18.830139,-0.034348,0.033196,-0.221058
18.840180,-0.010952,0.014970,-0.222148
18.860230,-0.017287,0.023418,-0.197556
18.870270,0.026330,0.012759,-0.231669
18.880280,0.060443,-0.002455,-0.199600
18.890320,-0.054609,0.018215,-0.200889
18.900330,0.034857,0.011653,-0.229514
18.910370,0.041236,0.004141,-0.226328
18.940430,-0.024829,0.017237,-0.240335
18.940430,-0.024829,0.017237,-0.240335
18.950470,0.066809,0.005157,-0.232661
18.960510,0.030640,0.020139,-0.214531
18.970520,-0.013072,0.023556,-0.229591
18.980560,0.100932,0.010375,-0.230406
19.000611,0.045467,-0.001156,-0.238091
19.000611,0.045467,-0.001156,-0.238091
19.010620,0.076393,0.006229,-0.240107
19.020661,0.071139,0.036168,-0.244253
19.030670,0.070003,0.010542,-0.244378
19.040711,0.039071,0.010718,-0.260485
19.050720,0.048753,0.041641,-0.257108
19.080811,0.064624,0.006409,-0.270049
19.080811,0.064624,0.006409,-0.270049
19.090851,0.036910,0.006509,-0.272262
19.100861,0.020949,0.017250,-0.274391
19.110901,0.033658,-0.010542,-0.277692
19.120911,0.091245,0.010705,-0.293456
19.140961,-0.007886,0.021838,-0.321451
19.151001,0.051826,0.033406,-0.324436
19.161011,0.059278,0.035564,-0.334019
19.171051,0.050689,0.006707,-0.323497
19.181061,0.033539,-0.019860,-0.339693
19.191101,0.080359,-0.034857,-0.362067
19.221192,0.091892,-0.090306,-0.387935
19.221192,0.091892,-0.090306,-0.387935
19.231201,-0.237244,-0.030607,-0.366130
19.241242,-0.010205,-0.018494,-0.372922
19.251251,0.065543,0.005793,-0.366189
19.261292,0.057013,0.001523,-0.360891
19.271301,0.077248,0.004737,-0.376843
19.281359,0.074045,-0.004930,-0.363011
19.291369,0.081544,0.014314,-0.372513
19.301409,0.086800,-0.012401,-0.372625
19.311449,0.082549,-0.010272,-0.368354
19.321459,0.081434,-0.020887,-0.381226
19.331499,0.075060,-0.019854,-0.369488
19.341509,0.093184,-0.014542,-0.375822
19.351549,0.098452,-0.034835,-0.379108
19.361559,0.077140,-0.038010,-0.370637
19.371599,0.083510,-0.041184,-0.381316
19.381609,0.088890,-0.027359,-0.372690
19.391649,0.084504,-0.064657,-0.386766
19.401659,0.074960,-0.046466,-0.387774
19.411699,0.084530,-0.053967,-0.388851
19.421740,0.069562,-0.071006,-0.388973
19.431749,0.071714,-0.062459,-0.391063
19.441790,0.074875,-0.072050,-0.397509
19.451799,0.073820,-0.069926,-0.394298
19.461840,0.069513,-0.080546,-0.403974
19.471849,0.068438,-0.083747,-0.403992
19.491900,0.072697,-0.084823,-0.405053
19.491900,0.072697,-0.084823,-0.405053
19.501940,0.072654,-0.097613,-0.410455
19.511950,0.067355,-0.083687,-0.415745
19.521990,0.081186,-0.093349,-0.414684
19.532030,0.081199,-0.089082,-0.413596
19.542040,0.079039,-0.095447,-0.421109
19.562090,0.076905,-0.092201,-0.428577
19.562090,0.076905,-0.092201,-0.428577
19.572130,0.080080,-0.098604,-0.431803
19.582140,0.066209,-0.099587,-0.440392
19.592180,0.067265,-0.100638,-0.444667
19.602190,0.060856,-0.102727,-0.450036
19.612230,0.054466,-0.099488,-0.453243
19.632280,0.044831,-0.110095,-0.461865
19.632280,0.044831,-0.110095,-0.461865
19.642290,0.051269,-0.095170,-0.460708
19.652330,0.067223,-0.104813,-0.464983
19.662371,0.061880,-0.106906,-0.470349
19.672380,0.076807,-0.105897,-0.468166
19.682421,0.077871,-0.109125,-0.463906
19.702471,0.104521,-0.104919,-0.468085
19.712481,0.106596,-0.121983,-0.474569
19.722521,0.098104,-0.112369,-0.469206
19.732531,0.106601,-0.116613,-0.480953
19.742571,0.100277,-0.092040,-0.478718
19.752581,0.083183,-0.104779,-0.483098
19.772661,0.097057,-0.095188,-0.488356
19.782671,0.077876,-0.090828,-0.493729
19.792711,0.094940,-0.085534,-0.495793
19.802721,0.092854,-0.069513,-0.494655
19.812761,0.081080,-0.079010,-0.510756
19.822771,0.089629,-0.075880,-0.501103
19.852861,0.088603,-0.055535,-0.511692
19.852861,0.088603,-0.055535,-0.511692
19.862871,0.096067,-0.048028,-0.523386
19.872911,0.097142,-0.046984,-0.519105
19.882952,0.093922,-0.051210,-0.526612
19.892962,0.111023,-0.034184,-0.525416
19.913012,0.100349,-0.035176,-0.533996
19.923052,0.120630,-0.023490,-0.534953
19.933062,0.116323,-0.039495,-0.535040
19.943102,0.104648,-0.019146,-0.539249
19.953112,0.133424,-0.020312,-0.538107
19.963152,0.121670,-0.029876,-0.540321
19.983202,0.139841,-0.007478,-0.546574
19.993242,0.121687,-0.025619,-0.537096
20.003252,0.117440,-0.014885,-0.545603
20.013292,0.118473,-0.025558,-0.547787
20.023302,0.115368,0.003246,-0.539114
20.033342,0.129129,-0.023432,-0.553088
20.053392,0.123832,-0.010589,-0.555179
20.063402,0.127040,-0.013864,-0.542367
20.073442,0.125955,-0.019185,-0.545600
20.083452,0.125948,-0.018087,-0.552004
20.093493,0.124896,-0.017051,-0.544524
20.103533,0.125945,-0.020233,-0.549878
20.113543,0.117428,-0.018079,-0.547754
20.123583,0.113139,-0.024448,-0.553137
20.133593,0.125941,-0.021295,-0.550951
20.143633,0.122748,-0.021300,-0.547755
20.153643,0.114192,-0.029796,-0.552092
20.163683,0.125983,-0.005271,-0.551943
20.173693,0.125901,-0.033017,-0.556347
20.193743,0.129131,-0.019129,-0.559477
20.203783,0.124817,-0.039421,-0.556381
20.213793,0.121667,-0.024480,-0.552046
20.223833,0.125890,-0.034060,-0.561693
20.233873,0.123711,-0.048984,-0.566043
20.243883,0.108832,-0.035067,-0.562814
20.263933,0.086425,-0.045684,-0.560789
20.273989,0.091732,-0.047787,-0.571467
20.283999,0.089582,-0.056338,-0.568308
20.294040,0.081075,-0.046679,-0.572559
20.304049,0.069333,-0.049814,-0.579016
20.314090,0.069298,-0.063708,-0.576945
20.334140,0.062912,-0.058327,-0.581210
20.344180,0.062946,-0.048741,-0.575824
20.354190,0.068234,-0.057246,-0.587600
20.364230,0.052257,-0.057224,-0.581234
20.374240,0.050118,-0.056119,-0.587644
20.384280,0.043680,-0.073195,-0.585606
20.404330,0.041628,-0.046511,-0.581213
20.404330,0.041628,-0.046511,-0.581213
20.414340,0.051162,-0.062515,-0.590876
20.424380,0.031967,-0.064573,-0.594144
20.434390,0.043695,-0.063549,-0.593038
20.444430,0.062888,-0.058251,-0.597233
20.454470,0.050109,-0.062552,-0.582334
20.464480,0.071431,-0.055100,-0.591853
20.474520,0.068228,-0.060460,-0.585478
20.484530,0.063966,-0.059373,-0.586553
20.494571,0.075616,-0.082875,-0.593041
20.504580,0.075738,-0.045558,-0.580046
20.514621,0.082103,-0.053024,-0.586473
20.524630,0.077811,-0.065846,-0.582273
20.534671,0.069290,-0.058297,-0.591875
20.544680,0.057559,-0.064697,-0.585528
20.554721,0.074587,-0.068984,-0.594047
20.564761,0.059726,-0.054045,-0.581199
20.574771,0.060735,-0.068949,-0.591949
20.584811,0.062913,-0.058332,-0.580142
20.594821,0.067173,-0.056180,-0.586529
20.614871,0.077798,-0.066883,-0.588687
20.624911,0.069287,-0.063672,-0.584422
20.634921,0.070380,-0.057298,-0.577980
20.644961,0.084237,-0.049807,-0.590725
20.654971,0.078882,-0.063713,-0.582260
20.665011,0.098064,-0.065922,-0.580081
20.685061,0.104465,-0.060578,-0.585379
20.695102,0.113026,-0.056404,-0.570380
20.705111,0.126843,-0.063869,-0.582128
20.715152,0.107660,-0.062734,-0.583244
20.725161,0.113037,-0.049977,-0.574623
20.735202,0.109719,-0.070049,-0.618524
20.755252,0.108700,-0.068042,-0.590743
20.765261,0.102325,-0.064852,-0.583268
20.775302,0.114070,-0.054186,-0.588527
20.785312,0.095846,-0.089338,-0.595153
20.795352,0.099156,-0.050929,-0.589621
20.805392,0.114008,-0.073378,-0.595027
20.825442,0.112995,-0.054152,-0.594939
20.835452,0.099081,-0.079773,-0.587621
20.845492,0.090584,-0.064759,-0.595051
20.855502,0.110812,-0.071217,-0.598230
20.865542,0.087392,-0.061534,-0.597181
20.875552,0.092729,-0.059421,-0.596088
20.895602,0.077828,-0.046512,-0.605682
20.905642,0.094852,-0.058325,-0.603554
20.915683,0.069267,-0.062533,-0.599372
20.925692,0.066190,-0.019816,-0.597042
20.935733,0.089508,-0.060413,-0.609988
20.945742,0.057617,-0.041182,-0.589689
20.955783,0.082150,-0.025167,-0.605569
20.965792,0.085265,-0.058309,-0.600376
20.975833,0.055521,-0.025131,-0.594960
20.985843,0.071435,-0.047574,-0.602500
20.995883,0.054481,-0.020902,-0.585329
21.005893,0.068272,-0.035822,-0.601385
21.015933,0.058662,-0.047583,-0.591853
21.035983,0.084280,-0.037017,-0.585323
21.046023,0.066132,-0.047638,-0.585424
21.056033,0.066244,-0.009213,-0.580969
21.066073,0.091674,-0.065916,-0.576894
21.076083,0.076829,-0.039180,-0.574672
21.076083,0.076829,-0.039180,-0.574672
21.096133,0.102353,-0.061709,-0.570435
21.116183,0.095995,-0.048879,-0.569324
21.126223,0.095995,-0.048941,-0.553312
21.136264,0.107732,-0.051113,-0.556483
21.146273,0.097040,-0.067128,-0.550179
21.156314,0.088578,-0.042528,-0.552223
21.166323,0.109844,-0.059674,-0.554381
21.176364,0.100232,-0.070352,-0.548049
21.176364,0.100232,-0.070352,-0.548049
21.196414,0.105567,-0.068234,-0.548024
21.206424,0.083259,-0.050082,-0.531977
21.216464,0.109894,-0.049060,-0.540444
21.226474,0.095977,-0.073598,-0.536326
21.226474,0.095977,-0.073598,-0.536326
21.246554,0.102433,-0.055499,-0.528745
21.266604,0.103541,-0.045942,-0.518015
21.266604,0.103541,-0.045942,-0.518015
21.286700,0.099235,-0.059796,-0.521297
21.296710,0.122763,-0.036428,-0.510439
21.296710,0.122763,-0.036428,-0.510439
21.306750,0.132276,-0.058830,-0.522269
21.316760,0.108883,-0.047078,-0.507323
21.346850,0.119645,-0.019432,-0.489003
21.346850,0.119645,-0.019432,-0.489003
21.356860,0.137618,-0.059966,-0.511578
21.366900,0.104626,-0.050313,-0.497736
21.376941,0.111065,-0.035393,-0.495511
21.386951,0.115217,-0.072759,-0.501018
21.417041,0.098255,-0.052524,-0.477468
21.417041,0.098255,-0.052524,-0.477468
21.427051,0.108962,-0.030092,-0.485878
21.437091,0.105658,-0.069600,-0.485006
21.447101,0.102643,-0.014154,-0.464456
21.457141,0.122801,-0.041935,-0.475214
21.487231,0.105790,-0.035548,-0.459208
21.487231,0.105790,-0.035548,-0.459208
21.497241,0.104709,-0.045191,-0.451779
21.507281,0.100493,-0.029169,-0.449578
21.517291,0.107956,-0.033510,-0.439964
21.527331,0.110090,-0.034600,-0.436759
21.547381,0.102611,-0.046369,-0.427221
21.547381,0.102611,-0.046369,-0.427221
21.557391,0.113380,-0.016592,-0.407823
21.567431,0.112270,-0.031530,-0.410033
21.577441,0.105858,-0.040073,-0.405818
21.587482,0.107008,-0.018798,-0.388623
21.597522,0.105875,-0.042279,-0.390873
21.617572,0.112349,-0.026392,-0.367280
21.617572,0.112349,-0.026392,-0.367280
21.627582,0.129370,-0.029581,-0.382203
21.637622,0.115563,-0.038307,-0.334213
21.647632,0.138998,-0.030801,-0.356545
21.657672,0.120890,-0.040470,-0.332072
21.667682,0.119882,-0.024493,-0.322385
21.687732,0.101802,-0.024556,-0.296798
21.687732,0.101802,-0.024556,-0.296798
21.697772,0.127291,-0.036204,-0.335238
21.707812,0.098593,-0.035280,-0.285107
21.717822,0.108186,-0.027775,-0.297864
21.727862,0.115609,-0.040605,-0.300041
21.737872,0.103995,-0.021526,-0.261527
21.757922,0.114572,-0.053619,-0.257376
21.767962,0.102945,-0.020495,-0.252979
21.777972,0.100773,-0.033288,-0.256250
21.788013,0.100807,-0.026931,-0.245538
21.798022,0.095447,-0.041895,-0.239214
21.808063,0.091188,-0.041897,-0.236021
21.838153,0.077373,-0.041978,-0.209355
21.838153,0.077373,-0.041978,-0.209355
21.848163,0.079540,-0.024863,-0.216745
21.858203,0.083722,-0.058013,-0.210481
21.868213,0.051887,-0.019570,-0.187955
21.878253,0.068859,-0.041991,-0.200832
21.898303,0.055057,-0.030264,-0.186928
21.908313,0.053986,-0.035631,-0.180547
21.918353,0.052937,-0.031371,-0.177326
21.928363,0.058230,-0.043125,-0.179503
21.938403,0.045465,-0.039931,-0.168841
21.948443,0.027356,-0.037746,-0.166744
21.968493,0.029463,-0.048447,-0.163584
21.978503,0.017768,-0.039881,-0.160372
21.988544,0.046602,-0.016460,-0.164454
21.998553,0.017763,-0.046329,-0.151856
22.008594,0.017761,-0.040939,-0.162513
22.018603,0.028467,-0.026043,-0.158140
22.038653,0.026358,-0.020722,-0.152780
22.048694,0.023115,-0.036725,-0.153933
22.058734,0.016735,-0.032443,-0.151794
22.068744,0.022090,-0.021771,-0.153865
22.078784,0.008205,-0.035634,-0.148628
22.088794,0.007175,-0.018508,-0.156027
22.108844,0.014595,-0.037796,-0.147552
22.118884,0.015666,-0.027044,-0.163521
22.128894,0.016778,-0.026116,-0.134672
22.138934,0.032733,-0.030374,-0.148535
22.148944,0.031676,-0.029323,-0.144260
22.158984,0.031701,-0.028326,-0.129300
22.179034,0.027453,-0.028357,-0.119698
22.179034,0.027453,-0.028357,-0.119698
22.189075,0.045537,-0.031539,-0.136755
22.199084,0.040159,-0.047525,-0.140050
22.209125,0.045632,-0.015682,-0.102497
22.219134,0.072136,-0.046561,-0.139957
22.229175,0.048769,-0.037046,-0.103657
22.249225,0.047635,-0.059449,-0.108039
22.249225,0.047635,-0.059449,-0.108039
22.259234,0.055235,-0.009285,-0.106713
22.269275,0.046626,-0.041311,-0.103683
22.279319,0.049928,-0.012568,-0.086447
22.289329,0.061522,-0.052054,-0.100488
22.299369,0.039231,-0.028567,-0.083347
22.329429,0.039268,-0.022221,-0.070499
22.329429,0.039268,-0.022221,-0.070499
22.339469,0.056298,-0.030824,-0.069424
22.349479,0.053107,-0.034063,-0.059834
22.359519,0.039235,-0.040431,-0.058835
22.369529,0.048892,-0.016968,-0.058697
22.389579,0.049931,-0.036275,-0.041694
22.399619,0.053106,-0.039449,-0.050246
22.409660,0.036106,-0.025556,-0.040613
22.419669,0.063798,-0.034204,-0.037373
22.429710,0.055252,-0.039501,-0.040626
22.439719,0.035037,-0.046010,-0.005462
22.459769,0.048869,-0.040594,-0.031035
22.459769,0.048869,-0.040594,-0.031035
22.469810,0.036109,-0.038492,-0.015037
22.479820,0.049956,-0.027737,-0.040585
22.489860,0.025470,-0.030977,-0.016099
22.499870,0.036156,-0.013864,-0.028807
22.509910,0.029677,-0.048047,-0.022578
22.529960,0.005243,-0.015905,-0.027834
22.529960,0.005243,-0.015905,-0.027834
22.540000,0.028629,-0.041636,-0.022550
22.550010,0.008376,-0.032946,-0.039657
22.560050,-0.010711,-0.012725,-0.011840
22.570060,0.013680,-0.039346,-0.045013
22.580100,-0.012893,-0.022253,-0.027914
22.610160,-0.017112,-0.006221,-0.027850
22.610160,-0.017112,-0.006221,-0.027850
22.620200,-0.024680,-0.030632,-0.054692
22.630241,-0.030994,-0.021172,-0.018345
22.640250,0.016897,-0.029725,-0.049232
22.650291,-0.016125,-0.035058,-0.027984
22.660300,-0.002186,-0.000899,-0.034193
22.670341,0.009438,-0.035091,-0.038596
22.680351,0.000996,-0.028868,0.006275
22.690391,0.038103,-0.054220,-0.078131
22.700401,0.006464,0.010532,0.026773
22.710441,-0.017149,-0.029801,-0.009802
22.720451,0.008353,-0.036104,-0.049286
22.740531,0.025452,-0.023380,-0.041701
22.740531,0.025452,-0.023380,-0.041701
22.750541,0.022309,-0.021386,-0.009653
22.760581,0.019034,-0.039444,-0.027908
22.770591,0.010516,-0.032978,-0.034310
22.780631,0.019143,-0.006394,-0.016001
22.790641,0.028632,-0.042725,-0.018283
22.810691,0.003078,-0.035181,-0.015113
22.820731,0.014846,-0.017044,-0.019267
22.830741,0.018009,-0.026641,-0.024645
22.840781,0.004203,-0.014904,-0.012877
22.850791,0.004188,-0.017010,-0.019297
22.860831,0.007359,-0.033095,-0.007614
22.880882,0.019056,-0.037359,-0.017215
22.890922,0.014859,-0.014934,-0.013916
22.900932,0.013770,-0.023474,-0.013960
22.910972,0.009523,-0.025666,0.000973
22.920982,0.023337,-0.024502,-0.028893
22.931022,0.026620,-0.004318,-0.008493
22.951072,0.019084,-0.026674,-0.018233
22.951072,0.019084,-0.026674,-0.018233
22.961082,0.009597,-0.001124,0.005362
22.971122,0.046756,-0.030950,-0.036336
22.981162,0.014911,-0.005403,0.003220
22.991172,0.022232,-0.038376,-0.030030
23.001212,0.011640,-0.021316,-0.017160
23.021262,0.031893,-0.016006,-0.024556
23.031272,0.020140,-0.040652,0.000932
23.041312,0.019170,-0.000017,-0.009561
23.051322,0.013715,-0.040535,-0.019382
23.061362,0.010654,-0.015102,0.024527
23.071372,0.027572,-0.031966,-0.034258
23.091453,0.022288,-0.028861,-0.009689
23.101463,-0.001134,-0.028866,0.007338
23.111503,0.010625,-0.017167,0.009562
23.121513,0.030805,-0.039629,0.003102
23.131553,0.041497,-0.031156,0.010649
23.141563,0.018023,-0.041769,0.012671
23.161613,0.031914,-0.030077,0.014901
23.161613,0.031914,-0.030077,0.014901
23.171653,0.010615,-0.027907,0.022330
23.181663,0.030788,-0.044963,0.002009
23.191703,0.031917,-0.036550,0.028757
23.201743,0.014856,-0.033235,0.016975
23.211753,0.027663,-0.026869,0.017041
23.231803,0.025498,-0.038604,0.015911
23.231803,0.025498,-0.038604,0.015911
23.241843,0.020162,-0.045030,0.023343
23.251853,0.009521,-0.041817,0.028670
23.261893,0.027685,-0.019399,0.018144
23.271903,0.018102,-0.031246,0.045835
23.281974,0.023377,-0.032170,0.011663
23.302024,0.006372,-0.030110,0.039399
23.302024,0.006372,-0.030110,0.039399
23.312064,0.012730,-0.030014,0.014848
23.322074,0.008540,-0.015151,0.036271
23.332114,0.025540,-0.027966,0.024507
23.342124,0.023336,-0.054662,0.025443
23.352164,0.017066,-0.016256,0.038426
23.372214,0.019183,-0.019447,0.034144
23.382224,0.019196,-0.014102,0.033101
23.392264,0.027678,-0.023686,0.021329
23.402274,0.011710,-0.023694,0.034103
23.412314,0.017056,-0.015148,0.029885
23.422324,0.025557,-0.025865,0.031995
23.442404,0.020257,-0.014091,0.029899
23.452414,0.004225,-0.032209,0.032974
23.462454,0.002154,-0.014082,0.040531
23.472464,0.008566,-0.004461,0.034185
23.482505,0.011701,-0.024742,0.029825
23.492514,-0.002142,-0.017196,0.024482
23.512564,-0.007469,-0.018262,0.027667
23.512564,-0.007469,-0.018262,0.027667
23.522605,-0.006419,-0.023600,0.026576
23.532614,0.009580,-0.023693,0.035165
23.542655,0.009535,-0.038628,0.031890
23.552695,0.003210,-0.014055,0.034125
23.562705,0.022356,-0.026923,0.031981
23.582755,-0.010730,-0.046058,0.036072
23.592795,0.016011,-0.005513,0.025655
23.602805,0.012721,-0.043988,0.034010
23.612845,0.018135,-0.014114,0.036303
23.622855,0.009495,-0.047121,0.021168
23.632895,0.001024,-0.037573,0.040417
23.652945,-0.000113,-0.059966,0.033899
23.652945,-0.000113,-0.059966,0.033899
23.662986,-0.003169,-0.005466,0.028807
23.672995,-0.007549,-0.048169,0.028593
23.683036,-0.001047,-0.010828,0.031992
23.693045,-0.013941,-0.040617,0.016861
23.703086,-0.015951,-0.010835,0.043701
23.723136,-0.010697,-0.036467,0.040390
23.733145,0.012803,-0.007623,0.022432
23.743186,0.013813,-0.035459,0.036190
23.753195,0.014946,-0.011978,0.038440
23.763236,0.021265,-0.032223,0.024475
23.773276,0.023426,-0.030170,0.040514
23.783286,0.015990,-0.017296,0.033077
23.793326,0.009555,-0.031153,0.031925
23.803336,0.025604,-0.009856,0.034207
23.813376,0.018117,-0.021600,0.038404
23.823386,0.027683,-0.023701,0.024533
23.833426,0.011738,-0.014088,0.035217
23.843436,0.006339,-0.038623,0.032949
23.863486,-0.000016,-0.026880,0.038328
23.863486,-0.000016,-0.026880,0.038328
23.873526,0.011737,-0.007620,0.022429
23.883536,-0.001099,-0.026821,0.026575
23.893576,0.008527,-0.020495,0.037314
23.903617,0.009531,-0.032155,0.018034
23.913626,0.009658,-0.006702,0.055542
23.933676,0.014870,-0.038666,0.036177
23.943717,0.011819,0.013663,0.038553
23.953726,0.023326,-0.058939,0.026491
23.963767,0.006470,0.000819,0.048091
23.973777,0.025606,-0.004476,0.025687
23.983817,0.012789,-0.022660,0.040520
24.003867,0.007413,-0.034345,0.030836
24.013907,0.011785,0.004077,0.033166
24.023917,0.002092,-0.028967,0.026574
24.033957,-0.002149,-0.025790,0.035123
24.043967,0.009527,-0.035374,0.021223
24.054007,-0.011688,-0.009771,0.041582
24.064017,-0.000039,-0.027882,0.024437
24.074057,-0.008555,-0.027890,0.031891
24.084067,-0.008546,-0.023608,0.029775
24.094107,0.008462,-0.038605,0.027614
24.104117,0.002111,-0.026872,0.035130
24.114157,0.006373,-0.023652,0.028747
24.124198,0.001053,-0.024738,0.036205
24.144248,0.000972,-0.051411,0.030738
24.154257,0.012844,0.000864,0.034222
24.164298,0.004253,-0.024758,0.038350
24.174308,0.023360,-0.047197,0.027615
24.184348,-0.005300,-0.011922,0.040521
24.194358,0.023362,-0.047202,0.028683
24.214408,-0.004291,-0.031138,0.038297
24.224448,0.013834,-0.024754,0.030899
24.234488,-0.006458,-0.042868,0.036099
24.244498,0.004220,-0.033271,0.031901
24.254538,-0.007496,-0.030024,0.030815
24.264548,-0.021328,-0.021436,0.030818
24.284624,-0.010708,-0.035354,0.030781
24.284624,-0.010708,-0.035354,0.030781
24.294664,-0.019192,-0.019302,0.029766
24.304674,-0.008510,-0.009720,0.028772
24.314714,-0.008605,-0.042811,0.025411
24.324724,-0.002119,-0.017267,0.039436
24.334764,0.002087,-0.024640,0.014844
24.354814,0.003267,0.008386,0.031027
24.354814,0.003267,0.008386,0.031027
24.364855,-0.010787,-0.054495,0.013599
24.374865,-0.021277,-0.007593,0.039429
24.384905,0.011640,-0.034242,0.006279
24.394915,-0.023399,-0.009773,0.050095
24.404955,-0.006440,-0.019227,0.005232
24.425005,-0.023401,0.005315,0.021325
24.435015,-0.034177,-0.041675,0.028550
24.445055,-0.021375,-0.032060,0.019017
24.455065,-0.027725,-0.013869,0.015881
24.465105,-0.051201,-0.033091,0.031748
24.475145,-0.013880,-0.016035,0.012704
24.485155,-0.032040,-0.035234,0.020041
24.495195,-0.031973,-0.011750,0.022289
24.505205,-0.013892,-0.025692,0.022273
24.515245,-0.010721,-0.036391,0.024367
24.525255,-0.024538,-0.022463,0.024395
24.535295,-0.004281,-0.019320,0.023397
24.545305,-0.006425,-0.024658,0.024435
24.565355,-0.010700,-0.029994,0.026534
24.575396,-0.005350,-0.017150,0.016995
24.585436,-0.013881,-0.024649,0.027619
24.595446,-0.015992,-0.012859,0.020191
24.605486,-0.036212,-0.004270,0.024449
24.615496,-0.001169,-0.041681,0.007277
24.635546,-0.034164,-0.027711,0.011525
24.645586,-0.027677,-0.001094,0.024487
24.655596,-0.045824,-0.002022,0.007341
24.665636,-0.044781,-0.012725,0.011566
24.675646,-0.032980,0.009612,0.022387
24.685686,-0.020196,0.014976,0.008561
24.705736,-0.003189,-0.008634,0.021315
24.715776,-0.001003,0.011655,0.020348
24.725786,-0.006318,0.017011,0.020359
24.735826,-0.005295,-0.006552,0.034137
24.745836,0.009638,0.009519,0.012890
24.755876,-0.009519,0.012725,0.025671
24.775927,-0.007351,0.027684,0.022543
24.785936,-0.018091,-0.003261,0.024503
24.795977,-0.008460,0.015976,0.015007
24.806017,-0.017020,-0.002202,0.025580
24.806017,-0.017020,-0.002202,0.025580
24.826067,-0.008459,0.008570,0.005338
24.836077,-0.025504,0.011694,0.028827
24.846117,-0.025564,-0.002119,0.013806
24.846117,-0.025564,-0.002119,0.013806
24.866167,-0.029759,0.019223,0.020305
24.866167,-0.029759,0.019223,0.020305
24.886217,-0.015904,0.020257,0.018211
24.896227,-0.026637,-0.006402,0.016988
24.906267,-0.023413,0.003199,0.017042
24.906267,-0.023413,0.003199,0.017042
24.926317,-0.013835,0.001057,0.011717
24.936357,-0.018008,0.025563,0.026776
24.936357,-0.018008,0.025563,0.026776
24.956407,-0.002069,0.010580,0.022477
24.966417,-0.018015,0.027739,0.018241
24.986467,-0.023311,0.035191,0.026807
24.996508,-0.016046,-0.020229,-0.002276
25.006517,-0.011674,0.004188,0.025625
25.016558,-0.010541,0.038445,0.007630
25.026567,-0.035178,-0.010636,0.014807
25.036608,0.001145,0.022367,0.011859
25.046648,-0.009534,0.016005,0.009663
25.046648,-0.009534,0.016005,0.009663
25.056658,-0.023437,-0.009652,0.024458
25.066698,-0.002048,0.028826,0.003335
25.076708,-0.001060,-0.003246,0.009596
25.096758,0.006437,0.016003,-0.000975
25.106798,-0.003152,0.003098,0.024575
25.126848,0.006403,-0.001124,0.007490
25.126848,0.006403,-0.001124,0.007490
25.136858,0.020307,0.009449,0.020397
25.146898,0.020191,-0.020346,-0.002177
25.156939,0.007489,-0.003344,0.024574
25.166948,0.019212,0.010622,-0.000965
25.176989,0.003133,-0.032124,0.015880
25.207048,0.003197,-0.011859,0.021317
25.207048,0.003197,-0.011859,0.021317
25.217089,0.006338,-0.020306,-0.001147
25.227098,-0.016018,-0.018164,0.012688
25.237139,0.004143,-0.044877,0.001936
25.247148,-0.011742,-0.018218,0.021246
25.267229,0.008429,-0.044962,0.016902
25.267229,0.008429,-0.044962,0.016902
25.277274,0.006414,0.004226,0.005379
25.287314,-0.003308,-0.044883,0.008324
25.297324,0.015975,-0.008631,0.007481
25.307364,-0.002231,-0.037381,0.001953
25.317374,0.004264,-0.008633,0.015994
25.337424,-0.003284,-0.043881,0.022216
25.337424,-0.003284,-0.043881,0.022216
25.347464,0.001050,-0.006416,0.001041
25.357474,-0.005373,-0.022465,0.011629
25.367514,0.000007,-0.001098,0.006404
25.377555,-0.002162,-0.013901,0.005269
25.387564,0.007355,-0.044933,0.011558
25.407614,-0.006448,-0.022431,0.005217
25.407614,-0.006448,-0.022431,0.005217
25.417655,0.011742,-0.002250,0.016045
25.427664,0.001044,-0.007474,-0.001101
25.437705,-0.000057,-0.026749,0.010555
25.447714,0.004334,0.016997,0.016116
25.457755,0.006384,-0.003219,-0.001066
25.477805,0.003178,-0.004257,-0.005352
25.477805,0.003178,-0.004257,-0.005352
25.487815,-0.007431,-0.003301,0.025601
25.497855,-0.003138,0.029983,-0.014822
25.507895,-0.005310,0.006420,0.001084
25.517905,0.000043,0.013868,0.003270
25.527945,-0.019176,0.000037,0.005288
25.547995,-0.019096,0.037485,-0.009489
25.558005,-0.009622,-0.009570,-0.002208
25.568045,-0.019119,0.014937,0.016041
25.578055,-0.007517,-0.006262,-0.025688
25.588095,-0.018137,-0.023582,0.030817
25.598105,-0.009508,0.039620,-0.015862
25.618186,-0.016944,0.019101,0.037431
25.628195,0.012704,-0.010544,-0.037402
25.638236,-0.013877,-0.023586,0.028692
25.648245,-0.008496,0.012858,-0.003167
25.658286,-0.027803,-0.026547,-0.013021
25.668296,-0.021302,-0.003205,0.014881
25.698386,-0.029846,-0.004200,0.005239
25.698386,-0.029846,-0.004200,0.005239
25.708396,-0.010849,-0.058605,-0.020603
25.718436,-0.045834,-0.011684,0.017978
25.728476,-0.004412,-0.044758,-0.017315
25.738486,-0.024643,-0.051216,0.007167
25.768576,-0.030950,-0.032084,0.030741
25.768576,-0.030950,-0.032084,0.030741
25.778586,-0.006637,-0.080003,-0.015352
25.788626,0.013702,-0.056650,0.000838
25.798636,-0.025632,-0.033144,0.025409
25.808676,0.029543,-0.092865,-0.030268
25.828726,0.016845,-0.062952,-0.023752
25.828726,0.016845,-0.062952,-0.023752
25.838767,0.010497,-0.070619,0.021059
25.848776,-0.019263,-0.044932,0.029644
25.858817,0.025331,-0.074701,-0.029125
25.868827,-0.018128,-0.031149,0.050009
25.878867,0.015699,-0.087470,-0.032417
25.908927,-0.002301,-0.058704,-0.005625
25.908927,-0.002301,-0.058704,-0.005625
25.918967,-0.014989,-0.030977,0.011562
25.928977,-0.016196,-0.070381,-0.011060
25.939017,-0.007546,-0.034175,0.005159
25.949057,-0.010704,-0.027828,0.020135
25.969107,-0.005375,-0.025689,0.015887
25.969107,-0.005375,-0.025689,0.015887
25.979117,-0.004364,-0.038447,0.003011
25.989157,-0.019223,-0.010587,-0.006512
25.999167,-0.004305,-0.017088,0.003112
26.009207,-0.011769,-0.015976,-0.001176
26.019217,-0.004308,-0.013849,-0.004350
26.039267,0.021238,-0.019211,-0.017124
26.049307,0.010598,-0.034315,0.022299
26.059317,0.001171,0.033057,0.009774
26.069358,0.000930,-0.043738,-0.010886
26.079398,-0.004289,-0.019295,0.018056
26.089408,-0.010590,0.027826,-0.005239
26.109458,-0.019153,0.008580,0.005329
26.119498,-0.003269,-0.026693,0.000933
26.129508,-0.005348,-0.015005,0.014869
26.139548,-0.020334,-0.029831,-0.001266
26.149558,-0.002169,-0.014954,0.002060
26.159598,-0.027787,-0.033061,0.009381
26.179648,-0.022459,-0.030922,0.005133
26.179648,-0.022459,-0.030922,0.005133
26.189688,-0.017114,-0.018064,-0.007610
26.199698,-0.023520,-0.029856,0.006203
26.209738,-0.023572,-0.043694,-0.003476
26.219748,-0.036350,-0.039380,-0.003491
26.229788,-0.048039,-0.031912,0.006126
26.249838,-0.055531,-0.041484,0.002855
26.259848,-0.042777,-0.046800,-0.011022
26.269889,-0.048060,-0.037232,0.001827
26.279921,-0.045981,-0.049998,-0.009978
26.289962,-0.042740,-0.040453,0.001827
26.300002,-0.034233,-0.044727,-0.003511
26.320052,-0.027797,-0.031953,0.000840
26.320052,-0.027797,-0.031953,0.000840
26.330062,-0.027879,-0.064011,0.004961
26.340102,-0.014980,-0.026695,0.009446
26.350112,-0.015112,-0.062904,-0.012090
26.360152,-0.021366,-0.031012,0.023295
26.370162,-0.015014,-0.030896,-0.005529
26.390212,-0.041582,-0.012741,0.012643
26.400252,-0.002301,-0.056548,-0.009888
26.410292,-0.024616,-0.042683,0.009344
26.420302,-0.022554,-0.059706,-0.005686
26.430342,-0.024573,-0.028815,0.012614
26.440352,-0.025632,-0.020218,0.001970
26.460402,-0.034174,-0.031988,0.012573
26.460402,-0.034174,-0.031988,0.012573
26.470443,-0.008651,-0.045898,0.000827
26.480452,-0.033088,-0.029901,0.022200
26.490493,-0.001120,-0.021370,0.003100
26.500502,-0.012892,-0.037336,-0.000212
26.510543,-0.023491,-0.028869,0.023299
26.530593,-0.002224,-0.038479,0.008358
26.540633,-0.038368,-0.008495,0.015877
26.550643,0.006256,-0.051286,0.000843
26.560683,-0.016030,-0.024586,0.015863
26.570693,-0.011841,-0.049142,0.011485
26.580733,-0.003280,-0.028814,-0.002282
26.600783,-0.006523,-0.044817,-0.003435
26.600783,-0.006523,-0.044817,-0.003435
26.610793,-0.000102,-0.052460,0.027525
26.620833,-0.022479,-0.033013,-0.004491
26.630843,0.020154,-0.038542,0.006283
26.640883,0.031013,0.022189,0.029032
26.650924,-0.013979,-0.056656,0.021058
26.670974,0.030919,-0.003365,0.012888
26.680983,-0.008507,-0.005418,0.022383
26.691024,0.003232,0.002034,0.019246
26.701033,0.026584,-0.044059,0.039389
26.711074,-0.019259,-0.028787,0.003015
26.721083,-0.008537,-0.021483,0.031921
26.731124,0.016011,-0.002284,0.020330
26.741133,0.022367,-0.023724,0.033064
26.751174,0.000003,-0.011859,0.023445
26.761214,0.055534,0.015621,0.046161
26.771224,0.067382,0.043198,0.078370
26.781264,-0.046848,0.017239,-0.000048
26.791274,0.047024,0.039295,0.014203
26.801314,0.010842,0.048933,0.033376
26.811324,0.096047,0.014371,0.056949
26.821364,0.168612,0.041856,0.066893
26.831374,-0.034084,-0.027964,0.064935
26.841414,-0.012758,0.001018,0.019197
26.851424,0.004147,-0.048121,0.010466
26.861464,0.047908,-0.032305,0.023480
26.881514,0.014840,-0.040726,0.020144
26.881514,0.014840,-0.040726,0.020144
26.891555,0.035080,-0.045068,0.021248
26.901564,0.048963,-0.033351,0.018137
26.911605,0.009541,-0.032185,0.024443
26.921614,0.021286,-0.022597,0.021316
26.931655,0.055307,-0.054756,0.023395
26.951705,0.020185,-0.026789,0.005270
26.961715,0.022358,-0.019386,0.019198
26.971755,-0.023568,-0.048016,0.007185
26.981795,0.009518,-0.035344,0.014814
26.991805,0.013838,-0.012916,0.011727
27.001845,0.010614,-0.022517,0.011673
27.041945,0.012694,-0.046059,0.020113
27.041945,0.012694,-0.046059,0.020113
27.051955,0.031954,-0.011892,0.008578
27.061995,-0.007583,-0.052370,0.013618
27.072005,0.015891,-0.037450,0.004140
27.082045,-0.000037,-0.024658,0.020179
27.092055,-0.001189,-0.050235,0.009373
27.102095,0.025486,-0.043954,0.018022
27.112136,-0.023506,-0.027746,0.011554
27.122145,0.030779,-0.053552,0.011582
27.132186,0.008518,-0.019392,0.029842
27.142195,-0.049123,-0.036160,0.001830
27.172286,-0.001169,-0.047066,0.016866
27.182296,0.034066,-0.029071,0.026662
27.192336,-0.029897,-0.016965,-0.005504
27.202346,0.054319,-0.045303,0.057619
27.212386,-0.024537,-0.012771,0.007349
27.232436,0.038365,-0.011963,0.019277
27.242476,-0.024570,-0.022362,0.003031
27.252486,0.029794,-0.031183,0.024504
27.262526,-0.026732,-0.028722,-0.005551
27.272536,0.024448,-0.034344,0.019133
27.282582,-0.003209,-0.006417,0.004234
27.302632,0.028758,-0.026964,0.036271
27.312642,-0.024593,-0.033062,0.007253
27.322682,0.043617,-0.036512,0.012766
27.332723,0.034071,-0.017238,0.008558
27.342732,-0.005487,-0.059807,0.003975
27.352773,0.020152,-0.054692,0.033980
27.372823,0.004183,-0.037462,0.014789
27.372823,0.004183,-0.037462,0.014789
27.382833,-0.004367,-0.045978,0.014725
27.392873,0.059620,-0.036615,0.023492
27.402883,0.009545,-0.022503,0.009534
27.412923,0.026572,-0.039711,0.023386
27.422933,0.017025,-0.017203,0.012784
27.443013,-0.041612,-0.025571,0.015787
27.453023,0.029809,-0.019380,0.012809
27.463063,0.005282,-0.023567,0.011653
27.473073,-0.036272,-0.020239,0.013691
27.483113,0.009641,-0.012036,0.054449
27.493123,-0.033005,0.015079,-0.004293
27.513173,0.010660,-0.001118,0.003229
27.523213,-0.019123,0.017104,0.009642
27.533223,-0.016995,-0.006590,0.050128
27.543263,-0.046866,0.012988,-0.004341
27.553304,0.013868,-0.004393,0.016041
27.563314,-0.022339,0.012863,0.005340
27.583364,0.021358,0.003028,0.022506
27.583364,0.021358,0.003028,0.022506
27.593404,-0.045765,0.023643,-0.000015
27.603414,-0.008521,-0.001066,0.005312
27.613454,-0.034034,0.020351,0.010684
27.623464,-0.016929,0.042752,0.004428
27.633504,-0.018061,0.012803,0.014966
27.653554,-0.006298,0.026643,0.016132
27.663564,-0.009449,0.041589,0.019398
27.673604,-0.064907,0.034344,0.008529
27.683644,0.008640,0.033007,0.015135
27.693654,-0.012648,0.042683,0.016190
27.703694,-0.021170,0.043773,0.017240
27.723744,-0.008373,0.043706,0.022616
27.733754,0.003394,0.057536,0.025919
27.743794,0.003363,0.049018,0.020537
27.753804,0.004430,0.047932,0.023740
27.763845,0.001221,0.043670,0.023711
27.773854,-0.003003,0.053255,0.032290
27.793935,0.014031,0.046797,0.031238
27.803945,-0.021093,0.065071,0.030160
27.813985,0.018230,0.031903,0.016225
27.823995,0.026751,0.022198,0.030089
27.834035,-0.013669,0.052237,0.029051
27.844045,0.022509,0.028610,0.032244
27.864095,0.017200,0.031795,0.039722
27.874135,0.041686,0.017797,0.047201
27.884145,0.036303,0.002904,0.038570
27.894185,0.032014,-0.008850,0.042775
27.904225,0.017120,0.000810,0.042780
27.914235,0.023524,0.000759,0.049206
27.934285,0.036258,-0.026036,0.060865
27.944326,0.029875,-0.021744,0.060868
27.954335,0.010681,-0.027036,0.063994
27.964376,0.041524,-0.049553,0.061837
27.974385,0.018112,-0.043125,0.073553
27.984426,-0.018124,-0.041934,0.072390
28.004476,-0.002180,-0.055854,0.069164
28.014516,0.009545,-0.061283,0.079852
28.024526,-0.009620,-0.053740,0.078767
28.034566,-0.023509,-0.063286,0.074411
28.044576,-0.011784,-0.067636,0.082968
28.054616,-0.026692,-0.061165,0.079753
28.074666,-0.024575,-0.065433,0.077602
28.084676,-0.045873,-0.054649,0.070117
28.094716,-0.028878,-0.074990,0.068999
28.104726,-0.060783,-0.049251,0.067965
28.114766,-0.040576,-0.063185,0.064750
28.124806,-0.050184,-0.068488,0.063630
28.134816,-0.071419,-0.034205,0.055188
28.144857,-0.038432,-0.052457,0.053056
28.154866,-0.051233,-0.053458,0.047675
28.164907,-0.075713,-0.039480,0.044469
28.174916,-0.057616,-0.048087,0.045546
28.184957,-0.062945,-0.042685,0.035943
28.194966,-0.070402,-0.038364,0.030602
28.205007,-0.070449,-0.052216,0.024127
28.215016,-0.084258,-0.032928,0.019907
28.225057,-0.074662,-0.029741,0.016744
28.235097,-0.058658,-0.021229,0.012556
28.245107,-0.070414,-0.032938,0.012468
28.255147,-0.083209,-0.029647,0.002834
28.265157,-0.048021,-0.023354,0.002961
28.275197,-0.092770,-0.014635,-0.003530
28.285237,-0.061950,-0.041388,-0.013186
28.295277,-0.070413,-0.018939,-0.012035
28.305287,-0.058671,-0.008262,-0.019429
28.315327,-0.053398,-0.028570,-0.019511
28.325337,-0.056567,-0.014646,-0.025863
28.335377,-0.049093,-0.010404,-0.024754
28.355427,-0.059783,-0.015653,-0.036559
28.365468,-0.053352,-0.001786,-0.037543
28.375477,-0.017143,-0.009354,-0.042820
28.385518,-0.051245,-0.009253,-0.040778
28.395527,-0.067270,-0.018777,-0.048344
28.405568,-0.024596,-0.006120,-0.043894
28.425618,-0.028895,-0.010302,-0.059949
28.435627,-0.004389,-0.007128,-0.070548
28.445668,-0.025711,-0.007038,-0.074879
28.455678,-0.022509,-0.009220,-0.067403
28.465718,0.005181,-0.009244,-0.081214
28.475758,-0.003367,-0.012380,-0.089798
28.485768,-0.011878,-0.007012,-0.089796
28.495808,0.015769,-0.023061,-0.102614
28.505818,-0.003401,-0.016581,-0.104773
28.515858,0.010463,-0.012344,-0.106851
28.525868,0.021093,-0.019829,-0.112198
28.535908,0.031776,-0.005940,-0.120648
28.545918,0.010371,-0.035752,-0.125121
28.565968,0.036000,-0.011217,-0.136685
28.576008,0.008225,-0.033544,-0.139004
28.586049,0.038018,-0.041025,-0.158185
28.596058,0.028480,-0.027161,-0.147463
28.606099,0.005007,-0.027004,-0.164619
28.616108,0.053999,-0.036749,-0.169871
28.636158,0.025170,-0.044030,-0.191349
28.646199,0.027299,-0.047261,-0.187085
28.656209,0.003886,-0.031136,-0.193483
28.666249,0.027263,-0.047145,-0.211654
28.676259,0.051816,-0.041966,-0.194470
28.686299,0.009148,-0.049252,-0.205305
28.696339,0.037895,-0.052484,-0.219127
28.706349,0.021896,-0.055625,-0.221323
28.716389,0.049642,-0.037515,-0.230774
28.726399,0.061308,-0.057839,-0.231906
28.736439,0.017592,-0.066255,-0.228862
28.746449,0.051701,-0.053450,-0.250072
28.756489,0.062354,-0.055625,-0.248985
28.776539,0.057006,-0.053391,-0.266080
28.776539,0.057006,-0.053391,-0.266080
28.796589,0.029233,-0.067108,-0.282245
28.806630,0.058024,-0.059706,-0.286403
28.806630,0.058024,-0.059706,-0.286403
28.816639,0.027100,-0.062789,-0.290776
28.826680,0.040918,-0.060562,-0.319569
28.856740,0.059011,-0.064847,-0.329153
28.856740,0.059011,-0.064847,-0.329153
28.866780,0.031307,-0.061548,-0.330283
28.876790,0.029104,-0.076396,-0.350655
28.886830,0.044080,-0.063690,-0.337735
28.896840,0.034414,-0.070967,-0.373047
28.926930,0.026913,-0.078353,-0.386990
28.926930,0.026913,-0.078353,-0.386990
28.936970,0.045121,-0.046379,-0.385720
28.946980,0.038629,-0.075137,-0.397624
28.957020,0.031162,-0.072936,-0.406180
28.967030,0.045034,-0.064417,-0.410374
28.987080,0.051436,-0.055844,-0.420998
28.997120,0.068380,-0.084637,-0.441384
29.007130,0.049169,-0.086645,-0.455333
29.017170,0.068425,-0.067545,-0.442371
29.027180,0.115363,-0.053830,-0.438972
29.037220,0.089677,-0.082495,-0.457338
29.067311,0.079047,-0.072854,-0.456253
29.067311,0.079047,-0.072854,-0.456253
29.077321,0.086399,-0.083304,-0.509693
29.087361,0.145042,-0.057718,-0.540388
29.097371,0.096056,-0.073846,-0.483985
29.107411,0.107704,-0.076875,-0.528832
29.127461,0.086457,-0.065175,-0.504266
29.137471,0.139631,-0.070369,-0.571441
29.147511,0.109906,-0.060949,-0.510591
29.157551,0.123639,-0.073531,-0.569364
29.167561,0.143953,-0.073799,-0.526580
29.177601,0.082205,-0.049041,-0.525566
29.207661,0.102320,-0.070222,-0.576885
29.207661,0.102320,-0.070222,-0.576885
29.217701,0.138585,-0.060734,-0.575671
29.227711,0.138724,-0.035321,-0.529618
29.237751,0.150199,-0.047496,-0.672784
29.247761,0.185496,-0.057703,-0.571254
29.267842,0.123529,-0.051641,-0.681423
29.267842,0.123529,-0.051641,-0.681423
29.277868,0.151458,-0.029801,-0.576558
29.287908,0.128024,-0.012531,-0.598973
29.297918,0.137492,-0.044484,-0.623667
29.307958,0.137587,-0.031861,-0.583015
29.317968,0.067277,0.000582,-0.620443
29.338018,0.094010,0.010988,-0.580796
29.348058,0.087379,-0.029178,-0.664325
29.358068,0.173856,-0.002993,-0.614825
29.368108,0.122798,0.029171,-0.606268
29.378148,0.134385,-0.012446,-0.621388
29.388158,0.132342,0.009902,-0.603128
29.408208,0.144021,0.005698,-0.625548
29.418248,0.145071,-0.000718,-0.624507
29.428258,0.100404,0.027128,-0.610612
29.438299,0.177082,0.014139,-0.626485
29.448308,0.120642,0.019561,-0.605251
29.458349,0.117279,-0.016531,-0.649228
29.478399,0.160026,0.010976,-0.623342
29.478399,0.160026,0.010976,-0.623342
29.488439,0.155712,0.003610,-0.643685
29.498449,0.164330,0.023757,-0.618997
29.508489,0.143968,-0.008139,-0.635228
29.518499,0.123777,0.005744,-0.621331
29.528539,0.194123,0.031358,-0.665880
29.548589,0.132209,-0.001527,-0.670480
29.558599,0.162047,0.004855,-0.685322
29.568639,0.152571,0.018521,-0.632941
29.578649,0.149260,-0.000499,-0.673632
29.588689,0.183440,0.014235,-0.651036
29.598699,0.105608,0.002730,-0.649169
29.618779,0.174960,0.028120,-0.645653
29.618779,0.174960,0.028120,-0.645653
29.628789,0.069316,-0.005594,-0.670673
29.638830,0.153433,-0.003459,-0.728114
29.648839,0.162143,0.016399,-0.642539
29.658880,0.074548,-0.039775,-0.672957
29.668889,0.204699,0.012192,-0.685170
29.688939,0.109699,-0.034438,-0.696335
29.698980,0.245071,-0.023080,-0.706589
29.708989,0.162064,-0.024283,-0.621367
29.719030,0.196938,-0.049309,-0.773075
29.729070,0.281268,-0.043539,-0.695904
29.739080,0.180150,-0.027470,-0.637355
29.769170,0.184285,-0.047546,-0.685509
29.769170,0.184285,-0.047546,-0.685509
29.779180,0.231139,-0.073420,-0.666274
29.789220,0.139562,-0.053991,-0.647207
29.799230,0.192765,-0.079744,-0.657864
29.809270,0.148076,-0.063675,-0.637615
29.829320,0.149050,-0.088165,-0.653752
29.839361,0.123477,-0.091332,-0.644223
29.849370,0.170304,-0.107427,-0.660193
29.859411,0.110676,-0.095562,-0.644279
29.869420,0.086082,-0.118926,-0.655139
29.879461,0.126580,-0.102892,-0.685930
29.899511,0.085002,-0.119955,-0.662625
29.899511,0.085002,-0.119955,-0.662625
29.909520,0.099989,-0.102977,-0.649685
29.919561,0.059386,-0.133760,-0.661693
29.929570,0.081790,-0.132825,-0.648808
29.939611,0.106316,-0.123248,-0.658309
29.949651,0.110584,-0.129740,-0.643373
29.979711,0.144736,-0.107379,-0.652786
29.979711,0.144736,-0.107379,-0.652786
29.989751,0.081792,-0.133909,-0.645608
29.999761,0.092412,-0.137056,-0.664822
30.009801,0.185187,-0.096584,-0.704966
30.019811,0.086102,-0.130840,-0.619945
30.049901,0.159557,-0.127577,-0.682751
30.049901,0.159557,-0.127577,-0.682751
30.059942,0.048691,-0.116370,-0.718255
30.069951,0.176504,-0.119757,-0.767056
30.079992,0.143709,-0.110731,-0.620759
30.090001,0.014605,-0.114169,-0.708725
30.110051,0.135203,-0.089224,-0.646318
30.120092,0.066917,-0.113539,-0.651962
30.130101,0.181870,-0.120968,-0.740341
30.140142,0.162855,-0.104209,-0.658062
30.150152,0.049881,-0.111383,-0.644522
30.160192,0.158483,-0.109236,-0.721123
30.180242,0.093527,-0.109207,-0.682846
30.190282,0.166015,-0.120259,-0.653857
30.200292,0.131951,-0.117045,-0.632571
30.210332,0.146770,-0.111385,-0.710483
30.220342,0.181946,-0.123362,-0.685874
30.230382,0.106415,-0.088017,-0.656005
30.250432,0.131978,-0.104205,-0.637852
30.260442,0.143627,-0.099698,-0.695482
30.270482,0.153018,-0.143256,-0.750141
30.280519,0.208516,-0.107056,-0.764771
30.290559,0.184065,-0.101788,-0.732767
30.300600,0.129871,-0.102123,-0.625029
30.320650,0.209874,-0.069206,-0.639607
30.330659,0.112763,-0.085735,-0.691228
30.340700,0.262933,-0.084806,-0.764515
30.350710,0.174698,-0.075539,-0.631189
30.360750,0.046694,-0.062932,-0.725486
30.370760,0.213926,-0.059932,-0.796579
30.390810,0.121371,-0.033237,-0.732616
30.390810,0.121371,-0.033237,-0.732616
30.400850,0.162054,-0.005941,-0.660804
30.410890,0.097049,-0.018682,-0.632202
30.420900,0.162997,-0.032486,-0.694042
30.430940,0.164215,-0.004961,-0.643702
30.440950,0.141806,-0.018807,-0.636352
30.461000,0.168488,-0.006083,-0.635150
30.471040,0.140774,-0.009217,-0.630969
30.481050,0.180242,0.003475,-0.631868
30.491090,0.147229,0.007808,-0.622325
30.501100,0.149309,-0.009270,-0.625604
30.511140,0.183440,0.001308,-0.627596
30.531190,0.170689,0.013077,-0.623303
30.541231,0.155716,-0.012561,-0.611715
30.551241,0.150404,-0.000750,-0.621288
30.561281,0.148309,0.007759,-0.612708
30.571291,0.162134,-0.005116,-0.609526
30.581331,0.125894,-0.011451,-0.600042
30.601381,0.127973,-0.014525,-0.628893
30.611391,0.134488,0.003386,-0.581789
30.621431,0.135477,-0.000682,-0.625602
30.631471,0.139754,-0.007204,-0.604257
30.641481,0.112134,-0.003091,-0.551971
30.651521,0.151141,-0.038491,-0.771014
30.671571,0.144003,-0.006095,-0.615990
30.671571,0.144003,-0.006095,-0.615990
30.681581,0.140814,-0.008266,-0.606395
30.691621,0.153776,0.024540,-0.551725
30.701631,0.131207,-0.017881,-0.598990
30.711671,0.134505,-0.000977,-0.562581
30.721681,0.161102,-0.006297,-0.584965
30.741762,0.084398,-0.003998,-0.567007
30.751772,0.150492,0.006512,-0.576388
30.761812,0.135599,0.007548,-0.559333
30.771822,0.067484,0.026856,-0.530589
30.781862,0.132202,-0.034896,-0.615091
30.791872,0.138792,0.014016,-0.574249
30.811922,0.116380,-0.004127,-0.561578
30.821962,0.118535,0.001176,-0.555138
30.831972,0.102621,0.006385,-0.516701
30.842012,0.129277,0.017033,-0.528328
30.852052,0.129214,-0.004310,-0.531634
30.862062,0.137863,0.023282,-0.500501
30.882112,0.175124,0.015751,-0.514320
30.892152,0.130433,0.027517,-0.487683
30.902162,0.126082,-0.004507,-0.487846
30.912202,0.130363,0.007272,-0.497393
30.922212,0.111090,-0.015006,-0.515711
30.932253,0.124080,0.027406,-0.459927
30.952303,0.128101,-0.040783,-0.496558
30.952303,0.128101,-0.040783,-0.496558
30.962343,0.092101,0.008135,-0.428061
30.972353,0.135646,0.012786,-0.537944
30.982393,0.111200,-0.013199,-0.446268
30.992403,0.112399,0.020844,-0.419399
31.002443,0.121754,0.000021,-0.539111
31.022493,0.087791,-0.003552,-0.437742
31.032503,0.130407,0.004979,-0.464289
31.042543,0.116669,0.032659,-0.436422
31.052553,0.119818,0.014488,-0.435431
31.062593,0.134736,0.020913,-0.449247
31.072603,0.120935,0.029406,-0.428948
31.092683,0.145458,0.040066,-0.441649
31.102693,0.108208,0.032479,-0.392650
31.112733,0.127349,0.029324,-0.416113
31.122743,0.128353,0.017664,-0.435393
31.132784,0.101830,0.029215,-0.375591
31.142793,0.127356,0.045459,-0.440605
31.162843,0.088036,0.046301,-0.365935
31.172884,0.118803,0.035876,-0.440674
31.182893,0.104046,0.051564,-0.360525
31.192934,0.094332,0.032590,-0.406574
31.202974,0.078459,0.064598,-0.389375
31.212984,0.094385,0.037808,-0.380912
31.233034,0.085834,0.035760,-0.393764
31.243074,0.095526,0.051571,-0.356275
31.253084,0.102867,0.018532,-0.375639
31.263124,0.074109,0.021799,-0.369294
31.273134,0.065680,0.052756,-0.360625
31.283208,0.100792,0.033439,-0.364892
31.303258,0.101922,0.058008,-0.366909
31.313298,0.092242,0.015231,-0.347911
31.323308,0.077405,0.039787,-0.336085
31.333349,0.094342,0.009935,-0.358612
31.343358,0.069838,0.000292,-0.335225
31.353399,0.052930,0.054827,-0.338218
31.373449,0.067831,0.026836,-0.300922
31.383458,0.073048,0.015324,-0.354372
31.393499,0.079410,-0.016912,-0.317120
31.403508,0.086972,0.019369,-0.315859
31.413549,0.086968,0.016150,-0.312670
31.423589,0.109365,0.006334,-0.284881
31.433599,0.092258,0.011947,-0.330835
31.443639,0.083722,-0.017077,-0.285062
31.453649,0.087959,-0.011625,-0.311730
31.463689,0.133860,0.003081,-0.291238
31.473699,0.112471,-0.031089,-0.277572
31.483739,0.091152,-0.017005,-0.305338
31.493749,0.099786,-0.000138,-0.264642
31.513799,0.084763,-0.023468,-0.289363
31.523839,0.098739,-0.006659,-0.240107
31.533880,0.127298,-0.054536,-0.297938
31.543889,0.074167,-0.016089,-0.261583
31.553930,0.064540,-0.028873,-0.261670
31.563939,0.100717,-0.042803,-0.276591
31.583989,0.073027,-0.041701,-0.264912
31.594030,0.080570,-0.023677,-0.242374
31.604039,0.080536,-0.037570,-0.240303
31.614080,0.093317,-0.041893,-0.238152
31.624089,0.069883,-0.039707,-0.232865
31.634130,0.086951,-0.038735,-0.224268
31.654180,0.080547,-0.058073,-0.195535
31.654180,0.080547,-0.058073,-0.195535
31.664220,0.090177,-0.030217,-0.221014
31.674230,0.098703,-0.052863,-0.180505
31.684270,0.094454,-0.047510,-0.180492
31.694280,0.083789,-0.038836,-0.200776
31.704320,0.099800,-0.050812,-0.163401
31.724370,0.085965,-0.044369,-0.161273
31.734380,0.107304,-0.039124,-0.155848
31.744420,0.097685,-0.048704,-0.155920
31.754461,0.076370,-0.056176,-0.142127
31.764470,0.082810,-0.040183,-0.140965
31.774511,0.066809,-0.046549,-0.138903
31.794561,0.080704,-0.034872,-0.133469
31.794561,0.080704,-0.034872,-0.133469
31.804570,0.053006,-0.046671,-0.103691
31.814611,0.067854,-0.055106,-0.136804
31.824620,0.062688,-0.027596,-0.079005
31.834661,0.081792,-0.044639,-0.101465
31.844671,0.066915,-0.024264,-0.108888
31.864721,0.081824,-0.026428,-0.113129
31.874761,0.046679,-0.031785,-0.085478
31.884801,0.041335,-0.033874,-0.091912
31.894811,0.047773,-0.022183,-0.084362
31.904851,0.039302,-0.007249,-0.074701
31.914861,0.041302,-0.042387,-0.098362
31.934911,0.026439,-0.032828,-0.076994
31.944951,0.032937,0.000217,-0.068274
31.954961,0.027530,-0.023215,-0.078013
31.965001,0.017934,-0.029637,-0.068456
31.975011,0.024458,0.017331,-0.068216
31.985051,0.029665,-0.026466,-0.069477
32.005101,0.004121,-0.017875,-0.062030
32.015142,0.010611,0.007653,-0.044799
32.025151,0.011592,-0.010394,-0.068383
32.035192,0.021193,-0.017991,-0.049164
32.045202,0.011631,-0.006208,-0.050203
32.055242,0.023335,-0.018034,-0.041681
32.065252,0.024471,0.004364,-0.036231
32.075292,0.010536,-0.024425,-0.036406
32.085302,0.035113,-0.002083,-0.035164
32.095342,0.020126,-0.027680,-0.032122
32.105382,0.024451,-0.012809,-0.018153
32.115392,0.021260,-0.007433,-0.023477
32.125432,0.005250,-0.018081,-0.019299
32.135442,0.028702,-0.017094,-0.018161
32.145482,0.035106,-0.014989,-0.015997
32.155492,0.007431,-0.016089,0.009558
32.165532,0.014858,-0.009543,-0.024573
32.175542,0.019168,-0.018323,0.022399
32.185582,-0.003265,-0.022396,-0.004388
32.195592,0.026588,-0.021450,0.001040
32.215673,0.019130,-0.025743,0.010613
32.225683,0.007460,-0.017258,0.030917
32.235723,0.014813,-0.032021,-0.013997
32.245733,0.006426,-0.015199,0.048015
32.255773,0.001998,-0.041595,-0.013010
32.265783,-0.007489,-0.027894,0.031894
32.285856,0.021220,-0.038545,0.006286
32.295896,0.017087,-0.009859,0.040593
32.305906,-0.000124,-0.049160,0.007245
32.305906,-0.000124,-0.049160,0.007245
32.325986,0.008442,-0.041773,0.020122
32.335996,0.015947,-0.031164,0.029807
32.346036,-0.001059,-0.006480,0.015990
32.346036,-0.001059,-0.006480,0.015990
32.366086,-0.008560,-0.026797,0.026555
32.376096,-0.025592,-0.024651,0.036132
32.386136,-0.000043,-0.026794,0.020169
32.396146,-0.020314,-0.034204,0.020078
32.406186,-0.050094,-0.021378,0.038216
32.426237,-0.013781,-0.015270,0.076801
32.436277,-0.026685,-0.033181,0.033952
32.446287,0.001019,-0.028939,0.021230
32.456327,-0.056496,-0.027795,0.044577
32.466337,0.000934,-0.046982,-0.002356
32.476377,-0.018047,-0.010939,0.067196
32.496427,0.013793,-0.032164,0.016977
32.496427,0.013793,-0.032164,0.016977
32.516477,0.029759,-0.039691,0.016986
32.526487,0.005305,-0.031179,0.040459
32.536527,-0.015917,-0.009863,0.064002
32.536527,-0.015917,-0.009863,0.064002
32.556577,0.001070,-0.035564,0.067132
32.566617,0.013929,-0.012126,0.070483
32.566617,0.013929,-0.012126,0.070483
32.576627,-0.021315,-0.005321,0.010598
32.586667,0.019097,-0.046105,0.025472
32.596677,-0.000822,-0.004000,0.168757
32.606717,0.006309,-0.022371,-0.016112
32.616727,0.041558,-0.033504,0.055503
32.626768,0.024670,0.031741,0.046152
32.646818,0.045864,-0.016416,0.052392
32.656858,0.025543,-0.033361,0.036232
32.666868,0.050082,-0.030292,0.048065
32.676908,0.018138,-0.014124,0.038439
32.686918,0.035076,-0.071984,0.067054
32.696958,0.054340,-0.027057,0.038478
32.727018,-0.029810,-0.038784,0.091600
32.727018,-0.029810,-0.038784,0.091600
32.737058,-0.044812,-0.010473,-0.012992
32.747068,-0.014901,-0.044182,0.093753
32.757108,-0.101201,-0.045071,0.114874
32.767118,0.015945,0.028089,-0.078871
32.797208,0.002096,-0.023592,0.019122
32.797208,0.002096,-0.023592,0.019122
32.807248,-0.088332,-0.013049,0.109720
32.817258,-0.051132,-0.010690,0.037196
32.827299,-0.030938,-0.038583,0.049938
32.837308,-0.108624,0.017313,0.026487
