time_tick,gyr_X_value,gyr_Y_value,gyr_Z_value
0.000777,-0.006452,-0.020265,-0.001182
0.010787,-0.005381,-0.022440,0.006288
0.020827,-0.005389,-0.023492,0.003079
0.030837,-0.007516,-0.021344,0.002015
0.040877,-0.006447,-0.015973,-0.005434
0.050887,-0.004342,-0.022357,-0.011868
0.060927,-0.009655,-0.024546,0.003062
0.070968,-0.006453,-0.021338,-0.000119
0.080977,-0.010721,-0.021309,-0.003335
0.091018,-0.004336,-0.020221,-0.011858
0.101028,-0.010703,-0.018135,0.003089
0.111068,-0.004329,-0.025632,0.003071
0.121078,-0.007518,-0.021339,0.000946
0.131118,-0.010714,-0.018100,-0.004388
0.141158,-0.008582,-0.019185,-0.002251
0.151168,-0.006451,-0.023499,0.005212
0.161208,-0.005384,-0.021351,0.002021
0.171218,-0.003254,-0.021353,0.000958
0.181258,-0.008585,-0.020253,-0.002256
0.191268,-0.005379,-0.019216,0.002031
0.201308,-0.008590,-0.025623,0.004128
0.211318,-0.010723,-0.025611,0.003054
0.221358,-0.007501,-0.016005,0.002040
0.231399,-0.008585,-0.021331,-0.000125
0.241408,-0.008580,-0.022424,0.005211
0.251449,-0.010715,-0.021329,0.000938
0.261458,-0.010715,-0.021329,0.000938
0.271499,-0.006449,-0.020275,0.000954
0.281509,-0.005384,-0.022429,0.004152
0.291549,-0.007523,-0.025631,0.005199
0.301589,-0.005384,-0.021351,0.002021
0.311599,-0.007515,-0.020271,0.000952
0.321639,-0.008591,-0.022389,-0.002266
0.331649,-0.008579,-0.021351,0.004148
0.341689,-0.009661,-0.025604,0.000920
0.351699,-0.009642,-0.019202,0.002019
0.361739,-0.006441,-0.018144,0.002033
0.371779,-0.005393,-0.023477,-0.000126
0.381789,-0.010715,-0.022407,0.003069
0.391830,-0.006449,-0.020275,0.000954
0.401839,-0.009649,-0.021332,0.000941
0.411880,-0.007510,-0.018131,-0.000107
0.421889,-0.006454,-0.023489,0.003076
0.431930,-0.006453,-0.022416,0.002013
0.441970,-0.008579,-0.020273,0.002017
0.451980,-0.010712,-0.020261,0.000943
0.462020,-0.009646,-0.020265,0.000946
0.472030,-0.005393,-0.024555,0.002005
0.492080,-0.008578,-0.019200,0.000954
0.492080,-0.008578,-0.019200,0.000954
0.502120,-0.006443,-0.018139,0.000965
0.512130,-0.009648,-0.021338,0.002009
0.522170,-0.007511,-0.020282,0.003088
0.532210,-0.006449,-0.021353,0.003086
0.542220,-0.006447,-0.020280,0.002023
0.552260,-0.007500,-0.014932,0.000977
0.562270,-0.007524,-0.025626,0.004131
0.572311,-0.006447,-0.020280,0.002023
0.582320,-0.010696,-0.014926,0.002036
0.602401,-0.004318,-0.022433,0.004155
0.612411,-0.009642,-0.019202,0.002019
0.622451,-0.007504,-0.017073,0.002035
0.632461,-0.007515,-0.020271,0.000952
0.642501,-0.007512,-0.019204,0.000957
0.652511,-0.005384,-0.022429,0.004152
0.662551,-0.007518,-0.021339,0.000946
0.672591,-0.007503,-0.017078,0.003103
0.682601,-0.006442,-0.017066,-0.000099
0.692641,-0.006449,-0.020275,0.000954
0.702651,-0.005390,-0.023487,0.002010
0.712691,-0.006447,-0.020280,0.002023
0.722701,-0.009646,-0.020265,0.000946
0.732741,-0.007515,-0.019193,-0.001180
0.742796,-0.005381,-0.021361,0.004157
0.752805,-0.007521,-0.022407,0.000941
0.762846,-0.006436,-0.016008,0.002043
0.772856,-0.006452,-0.020265,-0.001182
0.782896,-0.005388,-0.021341,-0.000116
0.792906,-0.010710,-0.021344,0.004142
0.802946,-0.006456,-0.022406,-0.000124
0.812956,-0.007509,-0.019214,0.003093
0.822996,-0.006450,-0.020270,-0.000114
0.833036,-0.006452,-0.022421,0.003081
0.843046,-0.007519,-0.022412,0.002010
0.853086,-0.006447,-0.020280,0.002023
0.863096,-0.009648,-0.021338,0.002009
0.873136,-0.003250,-0.019212,-0.000100
0.883146,-0.007519,-0.023490,0.004141
0.893186,-0.008585,-0.021331,-0.000125
0.903227,-0.006438,-0.018154,0.004169
0.913236,-0.005395,-0.023472,-0.001194
0.923277,-0.009650,-0.022405,0.002004
0.933286,-0.009651,-0.021327,-0.000128
0.943327,-0.005390,-0.023487,0.002010
0.953336,-0.008583,-0.021336,0.000944
0.963377,-0.005383,-0.019200,-0.001174
0.973417,-0.006461,-0.024547,0.000934
0.983427,-0.006458,-0.023479,0.000939
0.993467,-0.009642,-0.019202,0.002019
1.003477,-0.011773,-0.019195,0.002013
1.013517,-0.008597,-0.025603,-0.000145
1.023527,-0.005380,-0.020288,0.003094
1.033567,-0.006455,-0.022411,0.000944
1.043577,-0.005383,-0.021356,0.003089
1.053617,-0.009654,-0.022395,-0.000133
1.063658,-0.006449,-0.021353,0.003086
1.073667,-0.006455,-0.022411,0.000944
1.083708,-0.006441,-0.018144,0.002033
1.093717,-0.008582,-0.021341,0.002012
1.103758,-0.008584,-0.020258,-0.001188
1.113767,-0.009652,-0.023478,0.003067
1.123808,-0.007515,-0.020271,0.000952
1.133848,-0.008577,-0.020278,0.003085
1.133848,-0.008577,-0.020278,0.003085
1.153898,-0.004317,-0.021360,0.003092
1.163908,-0.009650,-0.022405,0.002004
1.173948,-0.008572,-0.017064,0.000964
1.183958,-0.007518,-0.021339,0.000946
1.193998,-0.008578,-0.018122,-0.001178
1.204038,-0.008588,-0.023477,0.002002
1.214048,-0.004322,-0.022423,0.002018
1.224088,-0.004311,-0.018146,0.000970
1.234098,-0.007516,-0.021344,0.002015
1.244138,-0.007516,-0.020266,-0.000117
1.254148,-0.009656,-0.024541,0.001994
1.264189,-0.005386,-0.021346,0.000952
1.274229,-0.006450,-0.021348,0.002018
1.284239,-0.006446,-0.018129,-0.001172
1.294279,-0.005401,-0.026686,0.000927
1.304289,-0.005385,-0.020273,-0.000111
1.314329,-0.008591,-0.023467,-0.000135
1.324339,-0.006452,-0.021343,0.000949
1.334379,-0.009654,-0.022395,-0.000133
1.334379,-0.009654,-0.022395,-0.000133
1.354429,-0.007515,-0.020271,0.000952
1.364469,-0.007512,-0.019204,0.000957
1.374479,-0.006450,-0.020270,-0.000114
1.384519,-0.010724,-0.023455,-0.001209
1.394529,-0.005383,-0.020278,0.000957
1.404569,-0.004317,-0.020282,0.000960
1.414579,-0.001132,-0.024564,0.000949
1.424619,-0.006440,-0.017071,0.000970
1.434660,-0.004322,-0.022423,0.002018
1.444669,-0.004319,-0.021355,0.002023
1.454710,-0.003247,-0.019222,0.002037
1.464720,-0.007515,-0.020271,0.000952
1.474760,-0.007518,-0.021339,0.000946
1.484770,-0.007514,-0.021349,0.003083
1.494810,-0.006441,-0.018144,0.002033
1.504850,-0.009642,-0.019202,0.002019
1.514860,-0.007530,-0.024533,-0.001205
1.524900,-0.006453,-0.022416,0.002013
1.534910,-0.008579,-0.020273,0.002017
1.544950,-0.005376,-0.018148,0.002036
1.554960,-0.004322,-0.021345,-0.000113
1.565000,-0.003254,-0.021353,0.000958
1.575041,-0.006455,-0.022411,0.000944
1.585050,-0.004320,-0.021350,0.000955
1.595091,-0.008580,-0.021346,0.003080
1.605100,-0.005392,-0.022404,-0.001189
1.615141,-0.005383,-0.020278,0.000957
1.625150,-0.005383,-0.020278,0.000957
1.635191,-0.003251,-0.020285,0.000963
1.645200,-0.006452,-0.021343,0.000949
1.655241,-0.004325,-0.021335,-0.002249
1.665281,-0.006455,-0.022411,0.000944
1.675291,-0.007515,-0.019193,-0.001180
1.685331,-0.005373,-0.016002,-0.000091
1.695341,-0.006440,-0.015993,-0.001162
1.705381,-0.005389,-0.021336,-0.001184
1.715391,-0.005383,-0.019200,-0.001174
1.725431,-0.005376,-0.017070,-0.000096
1.735471,-0.005386,-0.020268,-0.001179
1.745493,-0.006449,-0.019197,-0.001177
1.755534,-0.001118,-0.020297,0.002037
1.765543,-0.007513,-0.019198,-0.000112
1.765543,-0.007513,-0.019198,-0.000112
1.785593,-0.007513,-0.019198,-0.000112
1.795634,-0.005385,-0.020273,-0.000111
1.805674,-0.007518,-0.020261,-0.001185
1.815684,-0.003258,-0.021343,-0.001178
1.825724,-0.007518,-0.020261,-0.001185
1.835734,-0.008584,-0.020258,-0.001188
1.845774,-0.008582,-0.021341,0.002012
1.855784,-0.011784,-0.021315,-0.001202
1.865824,-0.006451,-0.019192,-0.002245
1.875834,-0.010711,-0.019188,-0.000120
1.885874,-0.005388,-0.020263,-0.002247
1.895914,-0.011776,-0.019185,-0.000123
1.905924,-0.006452,-0.020265,-0.001182
1.915964,-0.007509,-0.018136,0.000962
1.925974,-0.009647,-0.019186,-0.001186
1.936014,-0.004323,-0.022418,0.000950
1.946024,-0.004320,-0.021350,0.000955
1.956065,-0.003243,-0.016003,-0.001153
1.966105,-0.006453,-0.021338,-0.000119
1.966105,-0.006453,-0.021338,-0.000119
1.986155,-0.009646,-0.020265,0.000946
1.996165,-0.005383,-0.019200,-0.001174
2.006205,-0.004313,-0.018141,-0.000098
2.016215,-0.008584,-0.020258,-0.001188
2.026255,-0.010721,-0.021309,-0.003335
2.036295,-0.009652,-0.021322,-0.001196
2.046305,-0.008587,-0.021326,-0.001193
2.056345,-0.007510,-0.018131,-0.000107
2.066355,-0.009645,-0.017035,-0.004380
2.076395,-0.005379,-0.018137,-0.000101
2.086405,-0.009660,-0.023453,-0.002274
2.096445,-0.007514,-0.018120,-0.002243
2.106486,-0.003256,-0.020270,-0.002241
2.116495,-0.004330,-0.022397,-0.003323
2.126536,-0.007516,-0.020266,-0.000117
2.136545,-0.003256,-0.020270,-0.002241
2.146586,-0.004320,-0.020272,-0.001176
2.156596,-0.009648,-0.018103,-0.004385
2.166636,-0.004319,-0.019199,-0.002239
2.176646,-0.006455,-0.021333,-0.001187
2.186686,-0.004322,-0.020267,-0.002244
2.196726,-0.004309,-0.016000,-0.001156
2.206736,-0.001131,-0.021335,-0.004377
2.216776,-0.008587,-0.021326,-0.001193
2.226786,-0.010717,-0.019168,-0.004393
2.236826,-0.006443,-0.017061,-0.001167
2.246836,-0.005385,-0.019195,-0.002242
2.256876,-0.006456,-0.019177,-0.005450
2.266917,-0.009641,-0.017051,-0.001176
2.276926,-0.007530,-0.022377,-0.005468
2.286967,-0.005379,-0.017059,-0.002232
2.296976,-0.007512,-0.017047,-0.003306
2.307017,-0.000063,-0.021343,-0.003306
2.317026,-0.007521,-0.021329,-0.001190
2.327067,-0.004312,-0.014912,-0.005424
2.337107,-0.006449,-0.019197,-0.001177
2.347117,-0.005397,-0.022389,-0.004394
2.357157,-0.005388,-0.020263,-0.002247
2.367167,-0.003256,-0.020270,-0.002241
2.377207,0.000999,-0.021337,-0.005439
2.387217,-0.005388,-0.019185,-0.004379
2.397257,-0.004324,-0.019184,-0.005444
2.407267,-0.005402,-0.025603,-0.002272
2.417307,-0.003265,-0.022396,-0.004388
2.427347,-0.003242,-0.013852,-0.004347
2.437357,-0.003277,-0.025590,-0.006539
2.447398,-0.003266,-0.021318,-0.006519
2.457407,-0.005390,-0.019180,-0.005447
2.467448,-0.001136,-0.021320,-0.007581
2.477457,-0.005390,-0.018102,-0.007578
2.487498,-0.003267,-0.020235,-0.009719
2.497538,-0.002191,-0.018117,-0.006501
2.507548,-0.007526,-0.019158,-0.008657
2.517588,-0.001128,-0.018111,-0.008635
2.527598,-0.007529,-0.020226,-0.008662
2.537638,-0.004330,-0.019163,-0.009717
2.547648,-0.005397,-0.020233,-0.008656
2.557688,-0.001136,-0.020242,-0.009713
2.567728,-0.003262,-0.018099,-0.009709
2.577738,-0.004345,-0.023425,-0.011873
2.587778,0.001003,-0.018118,-0.008629
2.597788,-0.004333,-0.020231,-0.009722
2.607828,0.002059,-0.021320,-0.009709
2.617838,-0.003272,-0.022376,-0.008661
2.627878,-0.004335,-0.020226,-0.010790
2.637919,0.002066,-0.019189,-0.008631
2.647929,-0.004337,-0.022372,-0.008664
2.657969,0.002063,-0.019179,-0.010767
2.667979,-0.006463,-0.020229,-0.008659
2.678019,-0.002197,-0.018097,-0.010774
2.688029,-0.007535,-0.023440,-0.006541
2.698069,-0.007534,-0.021289,-0.009735
2.708079,-0.004305,-0.010625,-0.008608
2.718119,-0.007536,-0.022357,-0.009741
2.728159,-0.000076,-0.021303,-0.011851
2.738169,-0.005387,-0.017034,-0.007573
2.748259,-0.005401,-0.020223,-0.010793
2.758269,-0.005384,-0.014888,-0.009699
2.768309,-0.005398,-0.019155,-0.010788
2.778319,-0.004337,-0.019143,-0.013989
2.788359,-0.006465,-0.020224,-0.009727
2.798400,-0.005396,-0.018082,-0.011851
2.808409,-0.005399,-0.019150,-0.011856
2.818450,-0.008601,-0.020202,-0.012938
2.828460,-0.005404,-0.020213,-0.012929
2.838500,-0.003275,-0.021287,-0.012928
2.848510,-0.004339,-0.021289,-0.011863
2.858550,-0.006474,-0.021272,-0.014005
2.868590,-0.004338,-0.019138,-0.015058
2.878600,-0.007540,-0.021269,-0.014008
2.888640,-0.005410,-0.021270,-0.015071
2.898650,-0.004337,-0.019143,-0.013989
2.908690,-0.004350,-0.024488,-0.012946
2.918700,-0.002209,-0.021291,-0.012925
2.928740,-0.004345,-0.022347,-0.014004
2.938781,-0.002212,-0.022359,-0.012930
2.948790,-0.005404,-0.020213,-0.012929
2.958831,-0.004345,-0.022347,-0.014004
2.968840,-0.004339,-0.021289,-0.011863
2.978881,-0.004344,-0.022352,-0.012936
2.988890,-0.002200,-0.019165,-0.010779
2.998931,-0.001144,-0.021294,-0.012922
3.008940,-0.003261,-0.015948,-0.012903
3.018981,-0.000072,-0.020240,-0.010778
3.029021,-0.003275,-0.021287,-0.012928
3.039031,-0.002184,-0.012753,-0.011817
3.049071,0.000994,-0.019165,-0.012906
3.059081,0.004193,-0.019181,-0.011829
3.069121,0.000997,-0.019176,-0.010770
3.079131,0.004200,-0.015972,-0.012883
3.089171,0.002055,-0.021310,-0.011845
3.099211,-0.002207,-0.019145,-0.015052
3.109221,-0.002200,-0.019165,-0.010779
3.119262,-0.001136,-0.019164,-0.011844
3.129271,0.001000,-0.017030,-0.012896
3.139312,-0.005398,-0.018077,-0.012919
3.149321,-0.001141,-0.019148,-0.015049
3.159362,-0.005401,-0.019145,-0.012924
3.169402,-0.003269,-0.019152,-0.012918
3.179412,-0.002195,-0.015951,-0.012900
3.189452,-0.000081,-0.021288,-0.015056
3.199462,-0.001140,-0.021304,-0.010786
3.209502,-0.000084,-0.022356,-0.015061
3.219512,-0.001138,-0.019159,-0.012912
3.229552,-0.000083,-0.021283,-0.016124
3.229552,-0.000083,-0.021283,-0.016124
3.249602,-0.001143,-0.022372,-0.010791
3.259642,-0.000088,-0.024497,-0.014003
3.269652,-0.004335,-0.018070,-0.015052
3.279692,-0.004343,-0.019123,-0.018262
3.289702,-0.005409,-0.023426,-0.010808
3.299742,-0.007550,-0.024467,-0.015092
3.309752,-0.003271,-0.019147,-0.013986
3.319793,0.003122,-0.018084,-0.017168
3.319793,0.003122,-0.018084,-0.017168
3.339843,-0.010740,-0.022326,-0.014022
3.349883,-0.003261,-0.014870,-0.015034
3.359893,0.002074,-0.011673,-0.017141
3.369933,-0.003271,-0.020225,-0.011855
3.379943,-0.000075,-0.019152,-0.015046
3.379943,-0.000075,-0.019152,-0.015046
3.389983,-0.000036,-0.004196,-0.016043
3.400023,-0.002185,-0.011674,-0.013948
3.420073,-0.005368,-0.005246,-0.016063
3.420073,-0.005368,-0.005246,-0.016063
3.430083,-0.009641,-0.010587,-0.012895
3.440123,0.005298,-0.002072,-0.017087
3.460173,-0.000037,-0.005269,-0.014980
3.460173,-0.000037,-0.005269,-0.014980
3.470214,-0.001070,0.011867,-0.024516
3.480223,-0.002150,-0.002088,-0.008562
3.490264,0.000006,0.015062,-0.023429
3.500273,-0.001073,0.004336,-0.012801
3.510314,-0.005307,0.021492,-0.024482
3.530364,-0.010611,0.031126,-0.025519
3.530364,-0.010611,0.031126,-0.025519
3.540374,-0.001044,0.017171,-0.017013
3.550414,-0.004209,0.037543,-0.031880
3.560454,-0.004247,0.010734,-0.008507
3.570464,-0.001026,0.032193,-0.031897
3.580504,0.008583,0.031033,-0.019057
3.600554,0.011819,0.045979,-0.020046
3.600554,0.011819,0.045979,-0.020046
3.610564,-0.013847,0.018331,-0.027725
3.620604,0.001191,0.056693,-0.020025
3.630645,-0.004240,0.023640,-0.027673
3.640654,-0.008475,0.031104,-0.022309
3.650695,0.008622,0.047067,-0.022186
3.670745,0.002236,0.050292,-0.022188
3.670745,0.002236,0.050292,-0.022188
3.680754,-0.012745,0.031138,-0.026593
3.690795,-0.002073,0.033214,-0.021213
3.700835,-0.010595,0.040768,-0.031883
3.710845,-0.002050,0.038528,-0.015847
3.720885,-0.003157,0.030044,-0.027640
3.740935,0.033146,0.046952,-0.014641
3.740935,0.033146,0.046952,-0.014641
3.750971,0.011678,-0.000969,-0.028814
3.761011,0.023465,0.019258,-0.023345
3.771051,0.044900,0.059745,-0.017753
3.781061,0.014790,-0.029794,-0.033215
3.791101,0.013943,0.044919,-0.023250
3.811152,0.013853,0.009657,-0.019144
3.811152,0.013853,0.009657,-0.019144
3.821161,-0.002151,0.007609,-0.026675
3.831202,0.003219,0.023621,-0.028721
3.841211,0.014857,-0.012773,-0.019247
3.851252,-0.001109,0.000140,-0.028844
3.861292,0.003195,0.016155,-0.030893
3.881342,0.009523,-0.009506,-0.028860
3.881342,0.009523,-0.009506,-0.028860
3.891352,0.003156,0.000121,-0.027764
3.901392,0.004167,-0.019100,-0.028921
3.911402,0.011624,-0.024499,-0.021448
3.921442,0.003123,-0.009470,-0.032083
3.931482,-0.002227,-0.019079,-0.028938
3.941492,0.020151,-0.023449,-0.023556
3.951532,0.006267,-0.034088,-0.022576
3.961542,-0.008609,-0.013714,-0.029999
3.971582,0.010566,-0.020209,-0.024635
3.981592,0.017983,-0.039486,-0.018297
3.991632,-0.001172,-0.023359,-0.027887
4.001673,-0.005385,-0.007347,-0.023550
4.021723,0.013749,-0.029871,-0.016127
4.021723,0.013749,-0.029871,-0.016127
4.031733,-0.001150,-0.019118,-0.021458
4.041773,-0.010747,-0.020150,-0.022558
4.051783,0.016984,-0.013842,-0.020315
4.061823,0.012688,-0.029883,-0.012925
4.071833,-0.008608,-0.019104,-0.019342
4.091913,0.016948,-0.033116,-0.009724
4.091913,0.016948,-0.033116,-0.009724
4.101923,0.018052,-0.020314,-0.007524
4.111963,-0.004336,-0.013758,-0.023578
4.121973,-0.011805,-0.020172,-0.017219
4.132013,0.013821,-0.008553,-0.007480
4.142023,-0.004363,-0.029832,-0.011904
4.162104,-0.001135,-0.019169,-0.010776
4.162104,-0.001135,-0.019169,-0.010776
4.172113,0.006302,-0.026658,-0.012927
4.182154,0.007440,0.000042,-0.013866
4.192163,-0.023540,-0.027639,-0.010878
4.202204,0.003129,-0.015953,-0.016090
4.212214,0.028721,-0.019306,-0.002148
4.232294,0.006327,-0.014886,-0.018213
4.232294,0.006327,-0.014886,-0.018213
4.242304,0.005240,-0.032050,-0.001205
4.252344,0.014836,-0.031018,-0.000106
4.262354,0.016985,-0.024618,-0.000070
4.272394,0.005259,-0.027804,0.004156
4.282404,-0.010793,-0.040471,-0.016244
4.292444,0.018090,-0.024743,0.025570
4.302485,0.008420,-0.034161,-0.008684
4.312494,0.005252,-0.031013,0.005209
4.322535,-0.016068,-0.032006,0.004077
4.332544,0.011656,-0.024600,-0.000084
4.342585,0.018061,-0.025730,0.008474
4.352594,-0.012874,-0.033084,0.004081
4.362635,-0.003213,-0.008558,0.005292
4.372644,0.002047,-0.033133,0.004122
4.382685,0.015949,-0.019320,0.009567
4.392725,-0.008589,-0.023472,0.000933
4.402735,-0.019225,-0.014889,-0.000124
4.412775,-0.003217,-0.017162,0.018070
4.422785,0.011696,-0.018264,0.014901
4.432825,0.002067,-0.027808,0.007352
4.442835,-0.011780,-0.015940,-0.008654
4.452875,-0.003227,-0.020361,0.016986
4.462915,0.003178,-0.005335,-0.003221
4.472925,0.003160,-0.021435,0.013794
4.482965,-0.011776,-0.025648,0.011596
4.492975,-0.012827,-0.008456,-0.009689
4.503016,-0.001100,-0.016046,0.006330
4.513025,0.004204,-0.025680,0.007368
4.523066,0.001074,-0.000029,0.005344
4.533106,-0.018185,-0.023430,-0.001229
4.543116,-0.006419,-0.006367,-0.004321
4.553156,0.004229,-0.018219,0.010608
4.563166,-0.000062,-0.020270,-0.004369
4.573206,-0.019197,-0.008517,0.007384
4.583216,-0.008566,-0.014928,0.000974
4.593256,-0.013924,-0.024512,-0.001223
4.603266,-0.013873,-0.006363,-0.000068
4.613306,-0.007509,-0.018136,0.000962
4.623346,-0.000021,-0.011783,0.007422
4.633356,-0.010730,-0.026669,0.000912
4.643396,-0.006445,-0.017056,-0.002235
4.653406,0.007368,-0.032047,-0.003336
4.663446,0.007445,-0.012900,0.012778
4.673456,0.004260,-0.005389,0.007464
4.683496,-0.002155,-0.022541,0.025525
4.693537,-0.008636,-0.033017,-0.012999
4.703547,0.001056,-0.012900,0.017033
4.723597,0.004270,-0.008653,0.020267
4.723597,0.004270,-0.008653,0.020267
4.733637,-0.006408,-0.009631,0.008482
4.743647,-0.011798,-0.024504,-0.004421
4.753702,0.003205,-0.006499,0.017070
4.763742,-0.001183,-0.043792,0.001926
4.773752,-0.004239,-0.001140,0.018143
4.803842,-0.008562,-0.018173,0.009504
4.803842,-0.008562,-0.018173,0.009504
4.813852,0.003206,-0.004348,0.013875
4.823892,0.002080,-0.025698,0.012703
4.833933,0.015972,-0.009699,0.007476
4.843942,0.011647,-0.031033,0.005226
4.863992,-0.003146,0.011697,0.012865
4.863992,-0.003146,0.011697,0.012865
4.874033,-0.011767,-0.020293,0.008417
4.884042,-0.019214,-0.016002,0.009485
4.894083,-0.012803,-0.009610,0.008465
4.904093,0.001015,-0.028929,0.019094
4.914133,-0.001105,-0.017109,0.005257
4.934183,-0.009636,-0.023529,0.013749
4.944223,-0.006432,-0.019253,0.010573
4.954233,0.009624,-0.001210,0.023522
4.964273,-0.018149,-0.023542,0.022271
4.974283,-0.004275,-0.009643,0.009556
4.984323,-0.007532,-0.038527,0.022229
5.024423,-0.006476,-0.046042,0.029674
5.024423,-0.006476,-0.046042,0.029674
5.034464,0.015967,-0.016147,0.015991
5.044473,-0.002149,-0.024712,0.032992
5.054514,0.000017,-0.011904,0.033058
5.064554,-0.018106,-0.004289,0.015953
5.074564,-0.019208,-0.022486,0.025478
5.084604,0.005370,-0.003378,0.033113
5.094614,-0.014954,-0.028932,0.030800
5.104654,-0.022372,-0.008577,0.022330
5.114664,-0.021341,-0.026781,0.031861
5.124704,-0.021286,-0.004334,0.027694
5.144754,0.002143,-0.008662,0.023466
5.154794,-0.006467,-0.041760,0.027558
5.164804,-0.005316,-0.014028,0.034102
5.174844,-0.008571,-0.012757,-0.006493
5.184854,-0.011725,-0.021503,0.038322
5.194895,-0.004294,-0.023587,0.022309
5.214945,-0.001037,-0.000088,0.019225
5.224985,-0.007548,-0.044940,0.023267
5.234995,0.004259,-0.016159,0.026641
5.245035,-0.011758,-0.017089,0.008432
5.255045,-0.002147,-0.023644,0.032997
5.265085,0.013828,-0.019349,0.017038
5.285135,-0.005345,-0.005317,-0.001108
5.295175,-0.006407,-0.021485,0.030859
5.305185,-0.011744,-0.013901,0.011652
5.315225,-0.011716,-0.010758,0.024486
5.325235,-0.011787,-0.023461,0.000925
5.335275,-0.003164,-0.007637,0.036274
5.355325,-0.012813,-0.016043,0.013775
5.365366,-0.008599,-0.021285,-0.009738
5.375376,-0.011757,-0.021401,0.016958
5.385416,-0.018143,-0.011714,0.005236
5.395426,-0.028879,-0.039440,0.004006
5.405466,-0.027729,-0.009547,0.005219
5.425516,-0.039481,-0.012652,-0.007646
5.435526,-0.043762,-0.030894,0.013620
5.445566,-0.054464,-0.031795,-0.014188
5.455606,-0.036273,-0.004078,-0.016143
5.465616,-0.054418,-0.033020,0.018921
5.475656,-0.042734,-0.026469,-0.019471
5.495706,-0.028871,-0.033002,-0.002372
5.505716,-0.009722,-0.049109,0.002945
5.515756,-0.001114,-0.018156,0.000979
5.525797,0.006241,-0.054470,-0.003445
5.535806,0.019065,-0.027692,-0.028920
5.545847,-0.015047,-0.059877,0.025312
5.565897,0.001029,-0.019277,0.010594
5.565897,0.001029,-0.019277,0.010594
5.575907,-0.025699,-0.045858,0.003985
5.585947,-0.021437,-0.041560,-0.004529
5.595987,-0.020277,-0.009546,-0.000101
5.605997,-0.022575,-0.065025,-0.009984
5.616037,0.006380,-0.009668,0.007449
5.636087,-0.013950,-0.037358,0.005126
5.646097,-0.028825,-0.016988,-0.001228
5.656137,-0.019335,-0.050090,-0.008836
5.666147,-0.006479,-0.040646,0.017949
5.676187,-0.001112,-0.014932,-0.003278
5.686228,0.017963,-0.055581,-0.002350
5.706278,-0.000146,-0.048011,-0.009841
5.706278,-0.000146,-0.048011,-0.009841
5.716287,0.013841,-0.018311,0.023452
5.726328,-0.011823,-0.030886,-0.009793
5.736337,-0.003279,-0.030970,0.001981
5.746402,0.003125,-0.028865,0.004145
5.756442,-0.001158,-0.035253,0.003035
5.776492,-0.009618,-0.004195,-0.009660
5.786502,0.002049,-0.027753,-0.004398
5.796542,0.008495,-0.017165,0.010624
5.806552,0.014899,-0.006441,-0.003194
5.816592,-0.016064,-0.023402,-0.008701
5.826632,-0.016973,0.008422,0.037380
5.846682,-0.018129,-0.010681,0.012718
5.846682,-0.018129,-0.010681,0.012718
5.856692,-0.020248,0.016216,-0.027753
5.866733,-0.012847,-0.021322,0.000932
5.876742,-0.006348,0.011722,0.009652
5.886783,-0.011771,-0.013815,-0.006507
5.896792,0.002136,-0.006485,0.014930
5.916873,0.002093,-0.012812,-0.002191
5.926883,-0.024530,-0.011718,0.010559
5.936923,-0.004321,-0.004111,-0.031010
5.946933,-0.028790,-0.017100,0.022272
5.956973,-0.036269,0.001297,-0.023595
5.966983,-0.013941,-0.029847,-0.002316
5.987063,-0.032039,-0.007230,-0.030033
5.997073,-0.025613,-0.015966,0.006263
6.007113,-0.022508,-0.039385,-0.011999
6.017123,0.001056,-0.004280,0.001051
6.027163,-0.022497,-0.044806,0.005067
6.037173,-0.000034,-0.018205,0.010596
6.057254,-0.013919,-0.027762,0.008376
6.067264,0.005286,-0.013885,-0.003256
6.077304,0.000901,-0.063036,0.005045
6.087314,0.003189,-0.016141,0.023433
6.097354,0.004143,-0.037336,-0.011916
6.107364,0.018025,-0.052544,0.032916
6.137454,-0.011882,-0.058708,0.001826
6.147494,-0.005374,-0.023538,0.012692
6.157504,0.005282,-0.030031,0.023373
6.167544,-0.000177,-0.051144,-0.024811
6.177554,0.011770,-0.007726,0.044861
6.187594,0.004172,-0.033120,-0.000145
6.197604,0.004184,-0.034233,0.009464
6.207644,-0.005337,-0.005343,0.004233
6.217685,0.005260,-0.031038,0.010550
6.227694,0.008469,-0.026776,0.010579
6.237735,-0.008563,-0.019246,0.010567
6.247744,-0.002179,-0.016002,-0.002218
6.267795,-0.003199,-0.006448,0.010643
6.277835,-0.011803,-0.027718,-0.002300
6.287875,0.007460,-0.003253,0.005346
6.297885,-0.022405,-0.022475,0.025469
6.307925,-0.030971,-0.010473,-0.022568
6.317935,-0.027705,-0.011779,0.025505
6.337985,-0.009614,-0.002054,-0.010718
6.348025,-0.029877,-0.032108,0.035017
6.358066,0.005220,-0.019063,-0.037463
6.368075,-0.023469,-0.022477,0.026534
6.378116,-0.016029,-0.017050,0.003080
6.388125,-0.002201,-0.028857,0.006267
6.408175,-0.011825,-0.028725,-0.015124
6.418216,0.018141,-0.002286,0.019267
6.428225,-0.015029,-0.040543,0.001903
6.438266,-0.013860,-0.007481,0.010608
6.448306,-0.018193,-0.028790,0.003018
6.458316,-0.008595,-0.026686,0.003055
6.478366,-0.017059,0.005461,-0.013908
6.488406,-0.040559,-0.039539,0.032815
6.498416,-0.027823,-0.030794,-0.018382
6.508456,-0.017069,-0.011742,0.010579
6.518496,-0.017119,-0.018049,-0.010815
6.528506,-0.005378,-0.022450,0.008425
6.538546,0.020242,-0.005426,0.004303
6.548556,-0.018195,-0.033092,0.009407
6.558597,-0.019125,0.013880,0.013900
6.568606,-0.028885,-0.043727,0.007191
6.578647,-0.018168,-0.018096,-0.000136
6.588687,-0.029887,-0.019151,0.005168
6.598697,-0.006381,-0.003254,0.014922
6.608737,-0.007582,-0.039449,-0.008753
6.618747,-0.022393,-0.020360,0.029752
6.628787,-0.022401,-0.004174,-0.005423
6.638797,-0.002202,-0.031009,0.009461
6.648837,0.001010,-0.021372,0.002038
6.658847,-0.030957,-0.022367,0.008354
6.668887,-0.006383,-0.007556,0.021311
6.678927,-0.010804,-0.043669,-0.017328
6.688937,-0.029863,-0.021383,0.025453
6.698977,-0.019251,-0.020193,-0.007626
6.708987,-0.005413,-0.046035,0.027541
6.719027,-0.018267,-0.043635,-0.019485
6.729037,0.004222,-0.027891,0.023380
6.739077,-0.013968,-0.040531,-0.001299
6.759141,-0.016085,-0.043804,0.014703
6.769181,0.009485,-0.036315,-0.005487
6.779191,-0.017137,-0.044919,0.025377
6.789231,0.002051,-0.034221,0.008389
6.799241,0.001988,-0.051257,-0.002373
6.809281,-0.003255,-0.032124,0.020135
6.829331,-0.021362,-0.032100,0.027563
6.839371,-0.017243,-0.068282,-0.002507
6.849381,-0.006524,-0.064202,0.030656
6.859421,-0.016131,-0.037194,-0.027994
6.869431,-0.020316,-0.044969,0.038187
6.879471,-0.010798,-0.055538,0.008253
6.899521,-0.015076,-0.057630,0.001822
6.909562,0.006231,-0.066288,0.011454
6.919571,-0.000178,-0.069456,0.008217
6.919571,-0.000178,-0.069456,0.008217
6.939621,0.008368,-0.062003,0.007207
6.949662,0.013688,-0.072765,0.021058
6.969712,0.007304,-0.063083,0.010404
6.969712,0.007304,-0.063083,0.010404
6.989762,0.025375,-0.079150,0.008241
6.999802,0.011557,-0.073836,0.023183
7.009812,0.022218,-0.069574,0.017892
7.019852,0.021124,-0.077021,0.012513
7.039902,0.005155,-0.064098,0.000779
7.049943,-0.001194,-0.062068,0.027477
7.059952,0.013662,-0.071606,0.001835
7.069993,-0.000165,-0.068418,0.014631
7.080002,-0.010761,-0.048113,0.018970
7.080002,-0.010761,-0.048113,0.018970
7.090043,0.003099,-0.042788,0.012625
7.120133,-0.005412,-0.039577,0.016889
7.120133,-0.005412,-0.039577,0.016889
7.130143,0.003103,-0.046032,0.021155
7.140183,0.011613,-0.041697,0.001971
7.150193,-0.003239,-0.031096,0.028686
7.160233,0.015933,-0.021426,0.003147
7.200333,0.017023,-0.022583,0.021304
7.200333,0.017023,-0.022583,0.021304
7.210373,0.014843,-0.037502,0.015887
7.220383,0.014923,-0.015136,0.028811
7.230423,0.002054,-0.034231,0.010526
7.250474,-0.008535,-0.017181,0.025532
7.250474,-0.008535,-0.017181,0.025532
7.260483,0.016986,-0.025696,0.002062
7.270524,-0.016020,-0.022466,0.019077
7.280564,-0.011756,-0.012787,0.002043
7.290574,-0.000050,-0.022462,0.007371
7.300614,-0.020265,-0.019278,0.025490
7.320664,-0.012778,-0.007535,0.021293
7.320664,-0.012778,-0.007535,0.021293
7.330674,-0.008563,-0.019246,0.010567
7.340714,-0.009641,-0.017051,-0.001176
7.350754,-0.018135,-0.016046,0.018034
7.360764,-0.009630,-0.014930,0.002039
7.370804,-0.018121,-0.002087,0.002076
7.400864,-0.008559,-0.014949,0.005247
7.400864,-0.008559,-0.014949,0.005247
7.410904,-0.009680,-0.032007,-0.000178
7.420914,-0.006511,-0.045930,0.006174
7.430954,-0.023516,-0.034178,0.016865
7.440995,-0.021414,-0.037323,0.002969
7.481095,-0.009746,-0.056574,0.000774
7.481095,-0.009746,-0.056574,0.000774
7.491105,-0.012918,-0.048025,0.001874
7.501145,-0.006500,-0.039503,0.001932
7.511185,-0.011849,-0.050195,0.008276
7.541245,-0.001190,-0.048079,0.005110
7.541245,-0.001190,-0.048079,0.005110
7.551285,0.005214,-0.043818,0.003012
7.561295,-0.010768,-0.053478,0.024286
7.571335,0.004116,-0.049098,-0.008767
7.581376,-0.013948,-0.045982,0.022176
7.611435,-0.023545,-0.045936,0.018945
7.611435,-0.023545,-0.045936,0.018945
7.621476,-0.019321,-0.046901,-0.005616
7.631486,-0.023542,-0.039483,0.009362
7.641526,-0.012888,-0.042736,0.012581
7.651536,-0.019341,-0.051148,-0.010978
7.671616,-0.030991,-0.026567,-0.006621
7.681626,-0.015062,-0.045827,-0.009872
7.691666,-0.032037,-0.034166,0.020046
7.701676,-0.011864,-0.041530,-0.017321
7.711716,-0.005415,-0.040645,0.016884
7.721726,-0.022479,-0.037320,0.002966
7.751846,-0.028878,-0.034055,-0.005582
7.751846,-0.028878,-0.034055,-0.005582
7.761887,-0.004383,-0.045927,0.004043
7.771896,-0.022510,-0.055535,0.015698
7.781937,-0.015032,-0.030840,-0.017279
7.791946,-0.024601,-0.043807,0.021089
7.812027,-0.032075,-0.038357,0.002935
7.812027,-0.032075,-0.038357,0.002935
7.822037,-0.019263,-0.035235,0.011530
7.832077,-0.031044,-0.044712,-0.008843
7.842087,-0.038452,-0.037314,0.012536
7.852127,-0.041664,-0.028638,-0.013069
7.862137,-0.015051,-0.044784,-0.004526
7.892227,-0.015041,-0.045893,0.004014
7.902267,-0.024627,-0.042648,0.001867
7.912277,-0.006515,-0.041608,-0.004488
7.922318,-0.009738,-0.055521,0.003983
7.932327,-0.008646,-0.040528,-0.005557
7.962418,-0.022475,-0.029794,-0.007681
7.962418,-0.022475,-0.029794,-0.007681
7.972458,-0.023560,-0.041578,0.000806
7.982468,-0.032038,-0.026625,0.006195
7.992508,-0.038447,-0.024402,-0.007699
8.002518,-0.026696,-0.027761,0.016886
8.022568,-0.014997,-0.027718,-0.000173
8.022568,-0.014997,-0.027718,-0.000173
8.032608,-0.033098,-0.027714,0.011528
8.042648,-0.001205,-0.037258,-0.024748
8.052658,-0.035189,-0.018142,0.021181
8.062698,-0.021390,-0.022317,-0.008710
8.072708,-0.005416,-0.030948,-0.001230
8.102798,-0.029883,-0.024551,0.017961
8.102798,-0.029883,-0.024551,0.017961
8.112839,-0.033134,-0.031910,-0.004515
8.122849,-0.001142,-0.026685,-0.002266
8.132889,-0.035257,-0.034085,0.005082
8.142899,-0.035276,-0.027561,-0.019456
8.162949,-0.023531,-0.025514,-0.008731
8.172989,-0.004337,-0.009446,-0.032103
8.182999,-0.003331,-0.026496,-0.040727
8.193039,-0.032027,-0.018041,-0.002310
8.203079,-0.036285,-0.000809,-0.030014
8.213089,0.008429,-0.020187,-0.027846
8.243179,-0.033040,-0.005278,0.009498
8.243179,-0.033040,-0.005278,0.009498
8.253189,-0.014057,-0.015473,-0.105865
8.263229,-0.024567,-0.022372,0.005167
8.273270,-0.000121,-0.020083,-0.043892
8.283279,-0.001122,-0.031058,0.019078
8.313370,0.009493,-0.032034,-0.007603
8.323380,-0.003263,-0.029942,0.010531
8.333420,-0.001168,-0.037374,-0.000180
8.343460,0.010581,-0.031030,0.005224
8.353470,-0.022438,-0.028832,0.014757
8.373520,-0.004297,-0.017113,0.008453
8.373520,-0.004297,-0.017113,0.008453
8.383560,-0.028853,-0.031980,0.007246
8.393570,0.004170,-0.028802,-0.009739
8.403610,-0.025607,-0.014908,0.008404
8.413620,-0.013937,-0.025550,-0.007637
8.423660,0.007418,-0.016048,0.001013
8.443710,0.008446,-0.022393,-0.012901
8.453751,-0.002150,-0.010708,0.007421
8.463760,0.001027,-0.019272,0.009526
8.473801,0.001027,-0.017116,0.005263
8.483810,-0.010684,-0.009577,-0.000075
8.493851,0.009571,-0.011814,0.007448
8.523941,0.005310,-0.011805,0.008505
8.523941,0.005310,-0.011805,0.008505
8.533951,0.003142,-0.015994,-0.007544
8.543991,0.005330,-0.015100,0.027717
8.554001,0.007419,-0.017126,0.003144
8.564041,0.019149,-0.018263,0.009580
8.594131,-0.004259,-0.008616,0.018107
8.604141,0.010624,-0.016084,0.006363
8.614182,0.001020,-0.021402,0.008447
8.624191,0.001025,-0.017111,0.004195
8.634232,-0.005363,-0.017110,0.008450
8.654282,0.001028,-0.021428,0.013788
8.664322,0.013794,-0.021393,-0.002200
8.674332,0.002089,-0.021416,0.010587
8.684372,-0.002180,-0.023538,0.010565
8.694382,-0.001151,-0.023425,-0.014001
8.704422,0.004213,-0.028939,0.019103
8.734512,-0.016040,-0.028863,0.016911
8.744522,-0.001187,-0.031928,-0.022587
8.754587,-0.004326,-0.035334,0.022253
8.764597,-0.019275,-0.035200,0.004053
8.774637,0.007379,-0.026697,-0.005447
8.794687,-0.004365,-0.035213,-0.003383
8.804728,-0.002182,-0.022455,0.007365
8.814738,-0.007536,-0.030976,0.006242
8.824778,-0.017131,-0.027706,-0.001247
8.834788,-0.019240,-0.020228,-0.000149
8.844828,0.007422,-0.013907,-0.000045
8.864878,0.003173,-0.017168,0.014883
8.864878,0.003173,-0.017168,0.014883
8.874918,-0.007507,-0.013834,-0.005427
8.884928,-0.008568,-0.020308,0.009494
8.894968,-0.014933,-0.010686,0.011659
8.904978,-0.005391,-0.012712,-0.018235
8.915018,-0.013878,-0.019274,0.020167
8.945078,0.003165,-0.016065,0.007410
8.945078,0.003165,-0.016065,0.007410
8.955118,0.003162,-0.011747,-0.002183
8.965159,-0.002148,-0.010713,0.008489
8.975168,-0.002139,-0.003202,0.001047
8.985209,0.004263,-0.005399,0.009600
9.005259,0.011716,-0.005398,0.004280
9.015269,-0.003206,-0.010735,0.013827
9.025309,0.001048,-0.006411,-0.000027
9.035349,-0.016003,-0.005283,-0.001137
9.045359,-0.008486,0.009594,0.009636
9.055399,-0.010685,-0.007421,-0.004337
9.075449,-0.009587,0.003245,-0.002148
9.075449,-0.009587,0.003245,-0.002148
9.085459,-0.010676,-0.006373,-0.000060
9.095499,-0.024503,0.002200,0.003147
9.105540,-0.007442,0.007505,-0.001053
9.115549,-0.014911,0.002169,0.003174
9.125590,0.004224,-0.010663,-0.006448
9.155649,-0.010657,-0.004278,0.008496
9.155649,-0.010657,-0.004278,0.008496
9.165690,-0.008545,-0.008531,0.003141
9.175699,-0.002183,-0.010602,-0.015011
9.185740,-0.023448,-0.003153,0.005261
9.195780,-0.003236,-0.011717,-0.004337
9.215830,-0.011769,-0.017054,0.000955
9.215830,-0.011769,-0.017054,0.000955
9.225840,0.010615,-0.014981,-0.001110
9.235880,-0.008603,-0.026660,-0.002286
9.245890,-0.013883,-0.017103,0.012699
9.255930,0.004206,-0.012758,-0.015004
9.265970,-0.003237,-0.022487,0.014840
9.296030,-0.011787,-0.027769,0.008382
9.296030,-0.011787,-0.027769,0.008382
9.306071,0.006330,-0.021359,-0.004356
9.316080,-0.007500,-0.021395,0.012697
9.326121,-0.002148,-0.003172,-0.005362
9.336161,0.008471,-0.021396,0.002059
9.366221,0.017034,-0.008614,0.003211
9.366221,0.017034,-0.008614,0.003211
9.376261,-0.030938,-0.008423,-0.004398
9.386271,-0.009600,-0.005329,0.004221
9.396311,0.002164,0.012818,-0.002070
9.406321,-0.029882,-0.008396,-0.010804
9.426401,-0.006380,0.010746,-0.009581
9.436411,-0.007442,0.002120,0.008535
9.446451,-0.008507,0.007508,-0.001056
9.456461,-0.007452,0.004306,-0.002137
9.466501,-0.009502,0.027752,0.009719
9.476511,0.010695,0.017083,-0.006299
9.486551,0.003254,0.018124,0.004368
9.496592,-0.006354,0.013894,0.002185
9.506602,-0.008444,0.026696,0.006512
9.516642,-0.009500,0.033132,0.001199
9.526652,-0.001003,0.025659,-0.005222
9.536692,0.013945,0.030910,0.003389
9.546702,-0.013791,0.019232,0.007530
9.566782,-0.004205,0.022450,-0.002042
9.576792,-0.008425,0.036332,0.001217
9.586832,0.002179,0.022465,-0.009502
9.596842,-0.021262,0.019287,0.001101
9.606882,-0.016993,0.024643,-0.005271
9.616892,-0.004218,0.018184,-0.003130
9.636942,0.000004,0.008604,-0.012778
9.646982,-0.009561,0.009627,0.003224
9.657023,-0.018142,-0.003099,-0.009679
9.667032,-0.001068,0.003243,-0.007465
9.677073,-0.029860,-0.004155,-0.004375
9.687082,-0.010717,-0.011627,-0.018244
9.717173,-0.025631,-0.015911,-0.005487
9.727213,-0.022455,-0.020162,-0.011908
9.737223,-0.020339,-0.027660,-0.008733
9.747263,-0.027799,-0.028714,-0.006622
9.757315,-0.007531,-0.019143,-0.011862
9.777365,-0.022503,-0.037244,-0.013057
9.787405,-0.010732,-0.022351,-0.008681
9.797446,-0.025687,-0.034045,-0.009846
9.807455,-0.003329,-0.035120,-0.023676
9.817496,-0.032022,-0.023441,0.010483
9.827505,0.001978,-0.042608,-0.024765
9.847555,-0.005464,-0.036181,-0.023687
9.857596,0.004161,-0.037391,-0.000165
9.867636,-0.019279,-0.035184,0.000848
9.877646,0.026531,-0.025580,-0.028889
9.887686,-0.015020,-0.040573,0.008312
9.897696,-0.003323,-0.035140,-0.019403
9.917746,-0.019303,-0.041572,-0.003455
9.927786,-0.000104,-0.029831,-0.015096
9.937796,-0.008633,-0.034106,-0.008731
9.947836,-0.004383,-0.038386,-0.009808
9.957876,-0.011826,-0.031954,-0.009798
9.967886,-0.000090,-0.028799,-0.007614
9.997977,0.006343,-0.021400,0.004189
10.007986,-0.007590,-0.037267,-0.018357
10.018027,0.005245,-0.027758,-0.005458
10.028067,-0.007519,-0.015949,-0.009710
10.038077,0.005226,-0.034161,-0.006556
10.058127,-0.017132,-0.022315,-0.011903
10.068167,0.003153,-0.014951,-0.002198
10.078177,-0.007573,-0.034089,-0.013001
10.088217,-0.008603,-0.025582,-0.004418
10.098257,-0.005406,-0.016973,-0.020391
10.108267,-0.005417,-0.029864,-0.004429
10.128317,-0.003289,-0.022320,-0.020411
10.138357,-0.005385,-0.019195,-0.002242
10.148367,-0.016079,-0.022278,-0.020446
10.158407,0.002092,-0.012807,-0.003259
10.168417,-0.013919,-0.020220,-0.005475
10.178458,0.013823,-0.005329,-0.011737
10.188498,-0.025649,-0.020162,-0.009780
10.198508,-0.007545,-0.019097,-0.021475
10.208548,-0.007462,0.004336,-0.008546
10.218558,0.001010,-0.012753,-0.013944
10.228598,0.001052,-0.004270,-0.001086
10.238608,-0.005320,0.007528,-0.007457
10.248648,0.007455,0.002147,-0.007447
10.268698,-0.005330,0.004330,-0.008540
10.278738,-0.009627,-0.006321,-0.011807
10.288748,-0.008521,0.005398,-0.006407
10.298788,-0.004268,0.005414,-0.012805
10.308798,-0.022353,0.012908,-0.004274
10.318838,-0.007459,0.005404,-0.008541
10.338888,-0.012783,0.006485,-0.007482
10.348929,-0.000017,-0.001022,-0.009619
10.358938,-0.022375,0.004360,-0.003246
10.368979,-0.005344,-0.004244,-0.002171
10.378989,-0.017091,0.000177,-0.025684
10.389029,-0.021314,-0.001014,0.003141
10.399039,-0.004303,-0.002016,-0.022454
10.409079,-0.019200,-0.002043,-0.006472
10.419119,-0.013902,-0.006271,-0.019296
10.429129,0.004244,-0.006416,-0.001087
10.439169,-0.023483,-0.005198,-0.013976
10.449179,-0.008548,-0.000980,-0.012847
10.459219,0.003160,-0.009586,-0.007514
10.479269,0.001050,-0.005338,-0.001091
10.489310,0.002065,-0.015955,-0.015025
10.499319,-0.000021,-0.005319,-0.004298
10.509360,-0.018167,-0.009482,-0.015050
10.519369,-0.002209,-0.018062,-0.018251
10.529410,-0.003218,-0.008543,0.002087
10.549460,-0.002169,-0.021417,0.013779
10.559500,-0.004308,-0.005230,-0.020333
10.569510,-0.007518,-0.026725,0.010535
10.579550,0.000995,-0.017014,-0.016101
10.589560,-0.002165,-0.005272,-0.012849
10.599600,-0.004283,-0.009618,0.004216
10.609610,0.004174,-0.025583,-0.012928
10.609610,0.004174,-0.025583,-0.012928
10.629660,0.003174,-0.001013,-0.013883
10.639700,-0.007527,-0.022387,-0.003331
10.649740,0.002100,-0.008525,-0.005376
10.649740,0.002100,-0.008525,-0.005376
10.669791,0.001023,-0.012793,-0.005399
10.689841,-0.012874,-0.020158,-0.019359
10.689841,-0.012874,-0.020158,-0.019359
10.709891,-0.030947,-0.010549,-0.006545
10.719931,-0.009615,0.001180,-0.017112
10.729941,-0.024561,-0.013773,-0.006542
10.729941,-0.024561,-0.013773,-0.006542
10.749991,-0.016000,-0.006371,0.003130
10.770065,-0.015995,-0.001001,-0.003254
10.770065,-0.015995,-0.001001,-0.003254
10.780105,-0.019241,-0.016994,-0.006543
10.790145,0.003117,-0.025610,-0.006522
10.810195,-0.008586,-0.010555,-0.020370
10.810195,-0.008586,-0.010555,-0.020370
10.820205,-0.001143,-0.029914,0.003060
10.840255,-0.019246,-0.021286,-0.002290
10.840255,-0.019246,-0.021286,-0.002290
10.850295,-0.003295,-0.031997,-0.006570
10.870346,-0.017115,-0.013752,-0.016136
10.870346,-0.017115,-0.013752,-0.016136
10.880386,-0.032085,-0.035092,-0.009869
10.890396,-0.009699,-0.034102,-0.008734
10.920486,-0.012868,-0.020178,-0.015086
10.920486,-0.012868,-0.020178,-0.015086
10.930496,-0.008648,-0.045908,0.002964
10.940536,0.007388,-0.021337,-0.009694
10.950576,0.003104,-0.028799,-0.009742
10.960586,0.007362,-0.035261,-0.001215
10.990676,0.025508,-0.023557,-0.004314
10.990676,0.025508,-0.023557,-0.004314
11.000686,0.015915,-0.026755,0.000986
11.010726,0.013779,-0.027811,-0.000093
11.020767,0.029789,-0.021471,0.003185
11.030776,0.028712,-0.024666,0.002099
11.060867,0.028706,-0.018182,-0.013893
11.060867,0.028706,-0.018182,-0.013893
11.070877,0.014905,-0.019388,0.024518
11.080917,0.003116,-0.021298,-0.015047
11.090927,0.013812,-0.017142,0.002094
11.100967,-0.009613,-0.012830,0.009527
11.131057,0.010578,-0.010552,-0.034204
11.131057,0.010578,-0.010552,-0.034204
11.141067,0.006344,-0.027868,0.016977
11.151107,-0.001103,-0.011729,-0.003263
11.161117,-0.009681,-0.028773,-0.006572
11.171157,-0.004274,-0.002107,-0.003226
11.201248,-0.008591,-0.024545,0.001997
11.201248,-0.008591,-0.024545,0.001997
11.211257,0.009564,-0.013945,0.006370
11.221298,0.014836,-0.028862,-0.004368
11.231307,0.022360,-0.010777,0.005352
11.241348,0.008448,-0.032096,0.006281
11.271438,0.014838,-0.033180,0.005225
11.271438,0.014838,-0.033180,0.005225
11.281448,0.005252,-0.025627,-0.004380
11.291488,-0.002205,-0.030998,0.007325
11.301498,-0.006475,-0.030964,0.003040
11.311538,-0.016107,-0.044811,0.001880
11.331588,-0.013995,-0.053372,0.003982
11.341628,-0.000081,-0.028829,-0.001205
11.351638,-0.016101,-0.043753,0.004021
11.361679,-0.018227,-0.040533,0.001894
11.371688,0.003075,-0.040556,-0.007661
11.381729,0.000958,-0.043829,0.008341
11.401779,0.004208,-0.033231,0.023355
11.411819,0.006262,-0.037302,-0.020455
11.421829,0.008439,-0.048226,0.029705
11.431869,0.011622,-0.035265,-0.003339
11.441879,0.010594,-0.024607,0.002049
11.451919,-0.011805,-0.038483,0.015809
11.482009,0.007377,-0.011610,-0.034217
11.482009,0.007377,-0.011610,-0.034217
11.492019,0.006308,-0.029908,-0.003329
11.502059,-0.000043,-0.034336,0.034020
11.512069,0.011638,-0.015925,-0.027817
11.522109,-0.004361,-0.042764,0.012604
11.552200,-0.021331,-0.023582,0.032944
11.562210,-0.024598,-0.013657,-0.031111
11.572250,0.004217,-0.020335,0.006325
11.582260,-0.006443,-0.011676,-0.010755
11.592300,-0.009624,-0.012794,0.002049
11.622360,0.002134,-0.010787,0.021319
11.622360,0.002134,-0.010787,0.021319
11.632400,0.022334,-0.021467,0.007438
11.642440,0.017058,-0.002227,0.007514
11.652450,0.008478,-0.012802,-0.008583
11.662490,0.014925,-0.003293,0.008571
11.682540,0.035181,-0.001223,0.008637
11.682540,0.035181,-0.001223,0.008637
11.692550,0.022373,-0.009740,0.011766
11.702590,0.021292,-0.011842,0.005344
11.712631,0.017037,-0.005390,-0.001047
11.722640,0.009544,-0.024654,0.012728
11.732681,0.019212,0.016007,-0.010553
11.762770,0.005315,-0.012898,0.013840
11.762770,0.005315,-0.012898,0.013840
11.772810,0.025535,-0.017180,0.002126
11.782850,0.023399,-0.016080,-0.003216
11.792860,0.000022,-0.005456,0.024543
11.802900,0.009517,-0.024568,-0.005431
11.832960,0.000008,-0.001103,0.007472
11.832960,0.000008,-0.001103,0.007472
11.843000,-0.010677,-0.012831,0.010592
11.853010,-0.001141,-0.029919,0.004128
11.863050,-0.000049,-0.021389,0.006308
11.873091,0.002041,-0.032035,-0.002282
11.893141,0.004228,-0.023599,0.019128
11.903150,0.015928,-0.027874,0.011663
11.913191,0.013752,-0.040652,0.005187
11.923200,0.016945,-0.047110,0.013711
11.933241,-0.001155,-0.038493,0.010497
11.943281,-0.000101,-0.043846,0.012611
11.963331,-0.001164,-0.040618,0.008350
11.963331,-0.001164,-0.040618,0.008350
11.973341,0.006238,-0.063079,0.010401
11.983381,0.001975,-0.063065,0.010389
11.993391,0.003112,-0.036365,0.009450
12.003431,-0.007578,-0.059926,0.030674
12.013471,-0.000195,-0.065093,-0.010991
12.043531,0.000921,-0.054483,0.002949
12.043531,0.000921,-0.054483,0.002949
12.053572,-0.008655,-0.062044,0.027456
12.063581,0.005160,-0.053343,-0.015193
12.073622,-0.010800,-0.059840,0.014642
12.083631,-0.014037,-0.066167,-0.000352
12.103712,-0.021430,-0.054506,0.023184
12.113722,-0.010847,-0.064001,-0.008878
12.123762,-0.011836,-0.041616,0.000839
12.133772,-0.022480,-0.040549,0.008292
12.143812,-0.018230,-0.032981,-0.014093
12.153822,-0.029916,-0.036294,0.016837
12.173902,0.002063,-0.021335,-0.006505
12.183912,-0.018130,-0.024681,0.037221
12.193952,-0.005420,-0.014777,-0.033199
12.203962,-0.034066,-0.012942,0.050051
12.214002,-0.027786,-0.005057,-0.040693
12.224012,-0.017057,-0.009627,0.014862
12.254103,-0.026592,0.004227,0.027720
12.254103,-0.026592,0.004227,0.027720
12.264143,-0.025628,-0.008379,-0.017202
12.274153,-0.012795,-0.011792,0.018068
12.284193,-0.042591,0.008626,0.011673
12.294203,-0.006486,-0.011539,-0.039596
12.314253,-0.011690,0.012858,-0.001040
12.324293,-0.014909,-0.005377,0.018093
12.334333,-0.009635,-0.025685,0.018011
12.344343,0.000995,-0.022400,-0.006512
12.354383,-0.009555,-0.013012,0.047982
12.364393,0.013781,-0.020275,-0.012876
12.394483,-0.008571,-0.025684,0.016946
12.394483,-0.008571,-0.025684,0.016946
12.404524,-0.012833,-0.024597,0.015871
12.414533,-0.000108,-0.045977,0.011533
12.424574,0.002113,-0.026877,0.036198
12.434583,0.005256,-0.034257,0.013739
12.454634,0.006312,-0.032074,0.003070
12.464674,-0.006453,-0.040727,0.035041
12.474714,-0.015002,-0.040629,0.020062
12.484724,-0.008621,-0.036297,0.003009
12.494764,-0.013946,-0.051372,0.032833
12.504774,-0.007503,-0.020307,0.008429
12.534864,-0.022517,-0.041511,-0.014145
12.534864,-0.022517,-0.041511,-0.014145
12.544874,-0.041545,-0.021477,0.053194
12.554914,0.004217,-0.018179,0.002062
12.564955,-0.007531,-0.042840,0.030755
12.574964,-0.024553,-0.026725,0.022238
12.605055,-0.038448,-0.034095,0.009346
12.605055,-0.038448,-0.034095,0.009346
12.615064,-0.012816,-0.020340,0.019096
12.625105,-0.037358,-0.028789,0.015784
12.635145,-0.024613,-0.040537,0.007218
12.645155,-0.038382,-0.017068,0.022246
12.665205,-0.028827,-0.033139,0.026469
12.675245,-0.011785,-0.031008,0.015844
12.685255,-0.006473,-0.037433,0.015828
12.695295,-0.011784,-0.040705,0.033958
12.705335,-0.007536,-0.030976,0.006242
12.715345,0.003135,-0.036436,0.024405
12.735395,-0.014994,-0.035269,0.015815
12.745436,-0.013969,-0.044838,0.006159
12.755465,-0.030929,-0.019223,0.021188
12.765506,-0.012906,-0.046988,0.008288
12.775515,-0.018150,-0.021386,0.018008
12.785556,-0.028843,-0.027703,0.006199
12.805606,-0.035287,-0.040452,-0.003494
12.815646,-0.020280,-0.028925,0.032922
12.825656,-0.006470,-0.025594,-0.003344
12.835696,-0.020327,-0.029851,0.003007
12.845706,-0.018152,-0.026766,0.026529
12.855746,-0.001144,-0.027758,-0.001203
12.875796,-0.009575,-0.012951,0.035163
12.885836,-0.004326,-0.012715,-0.018232
12.895846,-0.020287,-0.026749,0.024386
12.905886,-0.019210,-0.017090,0.013753
12.915896,-0.010691,-0.013864,0.003110
12.925937,-0.007426,-0.004394,0.030937
12.956027,-0.007495,-0.020332,0.013770
12.956027,-0.007495,-0.020332,0.013770
12.966037,-0.004301,-0.020332,0.011642
12.976077,-0.008539,-0.021478,0.030853
12.986087,-0.010748,-0.024457,-0.015100
12.996127,0.009597,-0.012973,0.026670
13.016177,-0.026682,-0.009489,-0.007596
13.026217,-0.026647,-0.010679,0.018035
13.036227,-0.016111,-0.034026,-0.020502
13.046267,-0.026647,-0.022527,0.039344
13.056277,-0.002164,-0.003121,-0.016044
13.066317,-0.028826,-0.026681,0.015817
13.096408,-0.022440,-0.027749,0.011557
13.096408,-0.022440,-0.027749,0.011557
13.106417,-0.007575,-0.021157,-0.037508
13.116458,-0.039380,-0.007585,0.050061
13.126468,-0.010762,-0.016870,-0.038565
13.136508,-0.040532,-0.027776,0.029667
13.156558,-0.017070,-0.014971,0.015905
13.166598,-0.012855,-0.024526,0.000917
13.176608,-0.018168,-0.014867,-0.005462
13.186648,-0.027744,-0.012730,0.000931
13.196658,-0.022427,-0.018097,0.003057
13.206698,-0.010704,-0.009516,-0.012893
13.236789,-0.014881,0.005307,0.017075
13.236789,-0.014881,0.005307,0.017075
13.246798,-0.001081,-0.002102,-0.006422
13.256839,-0.017084,-0.016004,0.008423
13.266848,-0.026667,-0.012769,0.008412
13.276889,-0.010691,-0.007400,-0.008610
13.286898,-0.029876,-0.013801,0.003057
13.296939,-0.011771,-0.015971,-0.002245
13.306948,-0.014936,-0.005291,-0.000066
13.316989,-0.028818,-0.014858,-0.000150
13.327029,-0.004260,0.001082,-0.000007
13.337039,-0.016051,-0.024521,0.001976
13.347079,-0.020293,-0.014880,-0.001195
13.367129,-0.018147,-0.022474,0.022276
13.377139,0.004209,-0.012768,-0.012867
13.387179,-0.006442,-0.021373,0.007359
13.397219,0.010584,-0.028884,0.003097
13.407229,-0.008571,-0.012757,-0.006493
13.417270,0.008507,-0.013971,0.012776
13.447329,0.006301,-0.028809,-0.009733
13.457370,-0.002198,-0.028868,0.008403
13.467410,-0.011817,-0.035214,0.001937
13.477420,0.003143,-0.018150,-0.003282
13.487460,-0.004336,-0.028840,0.004124
13.507510,0.002041,-0.027728,-0.009739
13.517520,-0.006413,-0.018235,0.021260
13.527560,-0.000123,-0.034083,-0.019389
13.537570,-0.012822,-0.019247,0.013760
13.547610,-0.013925,-0.021278,-0.007617
13.557650,-0.011841,-0.042679,-0.000235
13.577700,-0.011827,-0.027642,-0.018323
13.577700,-0.011827,-0.027642,-0.018323
13.587710,-0.037346,-0.027751,0.022198
13.597750,-0.017140,-0.026597,-0.009787
13.607760,-0.020324,-0.028783,0.003012
13.617801,-0.020346,-0.039488,0.008303
13.627841,-0.001161,-0.028780,-0.010821
13.647891,-0.019228,-0.015957,-0.000129
13.657901,0.016965,-0.026708,-0.009693
13.667941,-0.017133,-0.043856,0.026451
13.677951,0.000924,-0.038332,-0.024748
13.687991,-0.009605,-0.017162,0.022325
13.698031,-0.002252,-0.041622,-0.004476
13.718081,-0.010753,-0.037368,0.005135
13.728091,-0.002252,-0.037315,-0.011933
13.738131,0.003136,-0.029978,0.013754
13.748141,-0.006510,-0.039472,-0.004478
13.758208,-0.001169,-0.036296,-0.002311
13.768218,-0.012870,-0.048177,0.033919
13.788299,-0.020314,-0.033126,0.017947
13.798308,-0.007577,-0.038386,-0.007680
13.808349,-0.004335,-0.025611,-0.001201
13.818359,-0.018229,-0.044835,0.008283
13.828399,-0.021467,-0.053312,-0.003516
13.838409,-0.025641,-0.022343,-0.000177
13.858489,0.003108,-0.034199,0.003051
13.868499,-0.015015,-0.031969,-0.004466
13.878539,-0.001157,-0.033102,-0.000160
13.888549,0.007372,-0.030984,-0.002263
13.898589,0.009491,-0.037414,0.000917
13.908599,0.008446,-0.028857,-0.001181
13.928680,0.013772,-0.031020,0.000960
13.938689,0.008458,-0.033204,0.014821
13.948730,0.004202,-0.024596,0.004168
13.958739,0.014858,-0.023548,0.000998
13.968780,0.006355,-0.025747,0.020192
13.978789,0.005222,-0.031994,-0.012955
13.998839,0.003142,-0.014916,-0.009676
14.008880,-0.003244,-0.023540,0.011630
14.018920,-0.007494,-0.014952,0.005250
14.028930,0.010584,-0.022421,-0.008623
14.038970,-0.007501,-0.025702,0.020154
14.048980,-0.001122,-0.018131,-0.004362
14.069030,-0.002188,-0.024591,0.007355
14.079070,-0.001139,-0.022388,-0.007587
14.089110,-0.008591,-0.029930,0.011585
14.099120,-0.002231,-0.031995,-0.007635
14.109161,-0.006510,-0.038394,-0.006609
14.119170,-0.017101,-0.024568,0.012655
14.139220,-0.011812,-0.030922,-0.002315
14.149261,-0.019215,-0.023538,0.022268
14.159301,-0.001147,-0.032055,0.004118
14.169311,-0.029908,-0.036319,0.022178
14.179351,-0.008574,-0.020288,0.005221
14.189361,-0.006450,-0.020270,-0.000114
14.209411,0.039319,-0.028846,-0.024597
14.219451,-0.014987,-0.024519,0.000911
14.229461,0.016956,-0.016985,-0.033148
14.239501,-0.013917,-0.021303,-0.002276
14.249541,0.002011,-0.034095,-0.018315
14.259551,-0.000021,-0.012861,0.009553
14.289641,-0.007503,-0.007380,-0.015011
14.299651,0.016929,-0.035211,-0.018279
14.309692,0.009470,-0.035192,-0.017232
14.309692,0.009470,-0.035192,-0.017232
14.329742,-0.018247,-0.010307,-0.066328
14.339782,-0.012914,-0.008183,-0.067372
14.339782,-0.012914,-0.008183,-0.067372
14.359832,-0.040630,-0.016692,-0.055738
14.369842,-0.083253,-0.006887,-0.067560
14.379882,0.014767,0.002593,-0.106768
14.379882,0.014767,0.002593,-0.106768
14.399932,0.033880,-0.023094,-0.107905
14.419982,0.009582,0.002155,-0.010645
14.419982,0.009582,0.002155,-0.010645
14.430022,0.061808,0.008444,-0.021153
14.440032,0.054284,0.010821,-0.067096
14.450072,-0.018199,0.021858,-0.092881
14.460113,0.074381,0.004778,-0.157867
14.480163,0.007334,0.008995,-0.100349
14.510223,-0.002216,-0.001881,-0.052357
14.510223,-0.002216,-0.001881,-0.052357
14.530273,-0.014967,0.003424,-0.036344
14.530273,-0.014967,0.003424,-0.036344
14.540313,-0.023564,-0.020022,-0.040752
14.550353,0.038348,0.010712,-0.032958
14.580413,-0.014965,-0.008429,-0.013968
14.580413,-0.014965,-0.008429,-0.013968
14.590453,-0.014967,-0.014887,-0.003316
14.600463,-0.003237,-0.013868,-0.001143
14.610503,-0.008552,-0.007433,-0.003263
14.620544,0.011719,-0.005408,0.006416
14.650603,0.014914,-0.004335,0.003225
14.650603,0.014914,-0.004335,0.003225
14.660644,0.004243,-0.007489,-0.000024
14.670653,0.050132,0.008330,0.010860
14.680694,-0.012810,-0.007434,-0.000071
14.690734,0.036269,0.006244,0.009744
14.710784,0.044796,0.009446,0.004441
14.710784,0.044796,0.009446,0.004441
14.720794,-0.005313,-0.000033,0.010667
14.730834,0.058662,0.017985,-0.004026
14.740844,0.001099,0.006354,0.010715
14.750884,-0.010621,0.017152,-0.006357
14.760930,0.009649,0.015947,0.008648
14.781010,0.018169,0.021325,-0.005190
14.781010,0.018169,0.021325,-0.005190
14.791020,0.002176,0.014934,0.002213
14.801061,-0.014913,0.004330,-0.002157
14.811070,0.012872,0.027704,0.004439
14.821111,-0.018120,0.006527,-0.012838
14.831120,0.024559,0.013778,0.005474
14.861211,0.016045,0.018078,0.005471
14.861211,0.016045,0.018078,0.005471
14.871251,-0.056514,-0.002965,-0.011921
14.881261,0.005355,0.010672,-0.002071
14.891301,-0.053306,0.000224,-0.010828
14.901311,0.019194,0.007449,-0.007389
14.931401,0.030926,0.006307,0.000115
14.931401,0.030926,0.006307,0.000115
14.941441,-0.060799,-0.017962,0.000815
14.951451,0.014925,0.003170,-0.003148
14.961491,-0.005314,0.003201,0.004273
14.971501,-0.004276,0.000054,-0.008557
14.991551,-0.044760,0.000135,0.002013
14.991551,-0.044760,0.000135,0.002013
15.001592,-0.004229,0.014985,-0.004214
15.011632,-0.017015,0.016095,-0.004244
15.021642,-0.050092,-0.000915,0.001994
15.031682,-0.021263,0.019292,0.000032
15.041692,0.022432,0.027774,-0.016898
15.061742,-0.042606,0.009750,-0.000072
15.071782,0.048043,0.035131,-0.009315
15.081822,-0.091647,0.005647,-0.002363
15.091832,0.009652,0.036405,-0.026506
15.101872,-0.035111,0.025775,-0.006384
15.111882,-0.104466,-0.002834,-0.006711
15.141972,0.048047,0.032965,-0.002916
15.141972,0.048047,0.032965,-0.002916
15.152013,0.032038,0.023391,0.000199
15.162022,0.050224,0.041431,0.012085
15.172063,0.040556,0.018003,0.004470
15.182073,0.046977,0.022208,0.014122
15.222173,-0.050045,0.003245,0.025514
15.222173,-0.050045,0.003245,0.025514
15.232213,0.100313,0.049898,-0.005896
15.242253,-0.009499,0.029898,0.007593
15.252263,0.024612,0.031923,0.007697
15.272313,0.005442,0.041637,-0.000856
15.272313,0.005442,0.041637,-0.000856
15.282353,-0.037236,0.026840,-0.004249
15.292363,0.005417,0.032021,0.000166
15.302403,-0.029741,0.037479,-0.000973
15.312444,-0.002059,0.035324,-0.015862
15.322453,0.006473,0.032047,-0.006240
15.352544,-0.062852,0.020576,-0.017168
15.352544,-0.062852,0.020576,-0.017168
15.362553,-0.041507,0.025801,-0.007470
15.372594,-0.042604,0.017286,-0.012855
15.382634,-0.029834,0.012998,-0.018181
15.392644,-0.028754,0.018334,-0.018152
15.422734,0.003224,0.020371,-0.019123
15.422734,0.003224,0.020371,-0.019123
15.432744,-0.022348,0.017200,-0.008526
15.442784,-0.060783,0.003533,-0.027925
15.452794,-0.046897,0.013084,-0.024637
15.462834,-0.103401,-0.000682,-0.010971
15.492925,-0.058648,0.002438,-0.023651
15.492925,-0.058648,0.002438,-0.023651
15.502934,-0.075720,-0.009295,-0.015208
15.512975,-0.011718,0.008637,-0.011742
15.522984,-0.072558,-0.017813,-0.022717
15.533025,-0.039539,-0.034010,-0.007748
15.563115,-0.024636,-0.040466,-0.007737
15.573125,-0.003307,-0.036269,-0.006590
15.583165,0.012609,-0.064102,-0.003473
15.593175,-0.039657,-0.086420,0.009095
15.603215,0.053149,-0.049278,-0.004359
15.633305,0.008285,-0.069281,-0.034488
15.633305,0.008285,-0.069281,-0.034488
15.643315,0.009428,-0.077069,0.030640
15.653355,-0.039670,-0.075609,-0.018627
15.663365,0.078688,-0.054619,-0.021405
15.673406,-0.015086,-0.074833,0.026310
15.703496,-0.032188,-0.077855,-0.000457
15.703496,-0.032188,-0.077855,-0.000457
15.713506,0.020046,-0.067284,-0.013081
15.723546,-0.002343,-0.076884,-0.000370
15.733556,-0.004443,-0.058661,-0.013108
15.743596,0.008341,-0.058688,-0.016278
15.763650,0.019038,-0.042688,-0.019377
15.773690,0.022253,-0.049218,0.004102
15.783700,0.002003,-0.042689,-0.007674
15.793740,-0.017180,-0.040475,-0.010921
15.803750,-0.010767,-0.036245,-0.006610
15.813790,-0.028877,-0.024363,-0.022628
15.843881,-0.054445,-0.025393,-0.013089
15.843881,-0.054445,-0.025393,-0.013089
15.853890,-0.017115,-0.012674,-0.018267
15.863931,-0.050177,-0.018959,-0.021593
15.873941,-0.062961,-0.017859,-0.019486
15.883981,-0.010706,-0.006277,-0.020355
15.904031,-0.042656,0.002370,-0.020403
15.914041,-0.007466,0.009737,-0.021339
15.924081,-0.072507,-0.003971,-0.014106
15.934121,0.004308,0.025697,-0.016958
15.944131,-0.053278,0.011986,-0.013977
15.954171,-0.024480,0.020441,-0.014926
15.984231,-0.030858,0.022562,-0.007456
15.984231,-0.030858,0.022562,-0.007456
15.994271,-0.030865,0.019353,-0.006403
16.004312,-0.011687,0.018233,-0.008492
16.014321,-0.026622,0.009708,-0.002164
16.024362,-0.016986,0.027852,-0.006324
16.044412,-0.098053,-0.008301,0.015713
16.044412,-0.098053,-0.008301,0.015713
16.054421,0.019164,0.010774,-0.033011
16.064462,-0.010628,0.002095,0.016004
16.074502,-0.043822,-0.026394,-0.034429
16.084512,0.045852,0.006244,0.003361
16.094552,-0.091781,-0.045633,0.001667
16.114602,-0.042743,-0.046906,0.011410
16.124612,0.012596,-0.055442,-0.028001
16.134652,0.062772,-0.045098,0.008506
16.144692,-0.078064,-0.087252,-0.014515
16.154702,0.050977,-0.060993,-0.009762
16.164743,-0.083417,-0.100085,-0.007113
16.184793,-0.030133,-0.102394,-0.006977
16.194802,-0.046202,-0.133322,-0.005031
16.204843,0.093494,-0.101702,-0.011973
16.214852,-0.097422,-0.159889,0.002179
16.224893,0.036972,-0.115412,-0.010058
16.234933,0.018774,-0.143109,-0.012375
16.244943,0.001691,-0.161269,0.000310
16.254983,0.012339,-0.155888,-0.015658
16.264993,-0.045220,-0.168607,0.003350
16.275033,0.027270,-0.155967,-0.009208
16.285043,-0.014342,-0.170768,-0.012598
16.295083,0.019804,-0.164542,0.002481
16.305123,-0.029302,-0.181368,-0.019099
16.315133,0.018725,-0.176346,0.015241
16.325173,0.011209,-0.178301,-0.017904
16.335183,0.029349,-0.174119,-0.011425
16.345223,-0.029274,-0.188995,0.012912
16.355233,0.038907,-0.177273,-0.028505
16.365274,-0.025019,-0.190062,0.009714
16.375314,-0.007979,-0.181458,-0.014767
16.395364,-0.029270,-0.180391,0.000134
16.395364,-0.029270,-0.180391,0.000134
16.405374,0.031461,-0.179450,-0.014649
16.415414,-0.035701,-0.201800,0.014970
16.425424,0.008019,-0.176160,-0.016834
16.435464,0.001628,-0.184769,0.001267
16.445474,-0.028236,-0.187835,-0.007376
16.465554,-0.013236,-0.164434,0.002390
16.475564,-0.005823,-0.172926,-0.013653
16.485604,0.018795,-0.143175,0.001511
16.495614,-0.007824,-0.131321,-0.002779
16.505654,0.025267,-0.114356,0.000597
16.515664,-0.003463,-0.093942,-0.005795
16.545754,-0.022538,-0.058678,0.002865
16.555795,0.012725,-0.028921,0.009512
16.565805,0.006281,-0.023358,-0.033208
16.575845,-0.008494,-0.007615,0.035192
16.585855,0.014890,0.002204,-0.024517
16.625985,0.119571,0.073299,0.000677
16.625985,0.119571,0.073299,0.000677
16.635995,-0.052061,0.052437,0.012923
16.646035,-0.003156,0.018190,-0.005264
16.656045,0.141044,0.122284,0.015923
16.686135,0.001331,0.089642,0.013246
16.686135,0.001331,0.089642,0.013246
16.696176,0.068478,0.094804,0.004911
16.706185,0.014100,0.090744,-0.002736
16.716226,0.054604,0.093831,-0.005814
16.726235,0.026899,0.088516,0.007971
16.746285,0.032258,0.098100,0.010167
16.756352,-0.062720,0.076174,-0.030791
16.766392,0.008796,0.089602,0.016471
16.776402,-0.091526,0.060203,-0.021332
16.786442,0.022556,0.076934,-0.024143
16.796452,-0.121352,0.045167,0.016970
16.826542,-0.072439,0.031362,-0.033166
16.836582,-0.004210,0.030007,-0.019098
16.846592,-0.096982,0.005685,-0.006650
16.856633,-0.041515,0.033367,-0.026662
16.866642,-0.098081,-0.003903,-0.010972
16.886692,-0.032013,-0.011623,-0.004416
16.896733,-0.046959,-0.017957,-0.009829
16.906742,0.009572,0.003264,-0.019186
16.916783,-0.044853,-0.029731,-0.005606
16.926823,-0.055503,-0.025415,-0.007751
16.936833,0.001018,-0.007393,-0.018192
16.966923,0.006400,-0.000036,0.003222
16.976933,-0.027834,-0.025373,-0.035448
16.986973,-0.045934,-0.059842,0.039114
16.997013,-0.037422,-0.026430,-0.031207
17.007023,-0.010780,-0.048052,0.006152
17.027073,0.017978,-0.037315,-0.025764
17.037113,0.023420,-0.032306,0.040504
17.047123,-0.019307,-0.035098,-0.017311
17.057164,0.042541,-0.039707,0.011680
17.067204,-0.055511,-0.044779,0.022067
17.077214,0.024469,-0.016099,-0.000009
17.107304,-0.002196,-0.022409,-0.002249
17.117314,0.026549,-0.043947,0.015889
17.127354,-0.016079,-0.036283,0.005125
17.137364,0.003137,-0.020286,-0.003292
17.147404,-0.004303,-0.027869,0.024425
17.157444,0.024395,-0.029865,-0.024643
17.167454,0.027675,-0.031217,0.033043
17.177494,-0.027793,-0.022271,-0.014069
17.187504,0.032978,-0.023612,0.002116
17.197544,-0.027748,-0.023490,0.017972
17.207554,-0.002220,-0.018026,-0.025729
17.217594,0.014913,-0.024798,0.039448
17.237644,0.023415,0.007566,-0.035151
17.247685,0.012905,0.010364,0.057768
17.257695,-0.031013,-0.020033,-0.033295
17.267735,0.038417,0.004031,0.024694
17.277745,-0.051130,-0.003154,0.024413
17.287785,-0.022377,0.007599,-0.010708
17.307835,-0.011751,-0.010646,0.000985
17.317875,0.011761,-0.003389,0.030995
17.327885,0.029940,0.026525,0.016231
17.337925,0.023484,0.001964,0.020370
17.347935,0.034207,0.021111,0.029036
17.357975,0.002185,0.014904,0.008622
17.378025,-0.021237,0.018133,0.019255
17.388066,0.048049,0.025419,0.012003
17.398075,-0.016927,0.025509,0.037461
17.408116,0.029896,0.014814,0.008698
17.418125,0.050229,0.030645,0.034467
17.428166,-0.011688,0.008541,0.008554
17.448216,0.036362,0.037189,0.015231
17.458256,0.066210,0.032765,0.027043
17.468266,-0.002048,0.015899,0.026775
17.478306,0.010792,0.040476,0.015176
17.488316,0.054531,0.057436,0.012173
17.498356,-0.039382,0.008580,0.019160
17.518406,0.005464,0.042644,0.011967
17.528446,-0.003116,0.020220,0.017178
17.538456,0.041651,0.024372,0.011981
17.548497,-0.035032,0.038453,0.022518
17.558506,-0.038269,0.031049,0.009655
17.568547,0.038465,0.029732,0.009861
17.588597,-0.011703,0.005357,0.004266
17.598606,0.025675,0.026544,0.015152
17.608647,0.005392,0.011634,0.020366
17.618687,0.004302,0.006328,0.013929
17.628697,0.007527,0.017002,0.012920
17.638737,-0.027691,-0.003205,0.019136
17.658787,0.009590,-0.008640,0.013872
17.668797,0.007450,-0.008608,0.008526
17.678837,0.002122,-0.012903,0.017036
17.688877,0.001022,-0.021408,0.009515
17.698887,0.014883,-0.031165,0.030872
17.708927,0.047947,-0.002266,-0.005219
17.728978,0.011653,-0.032132,0.011631
17.738987,0.027664,-0.024718,0.013846
17.749028,-0.022404,-0.031095,0.041451
17.759110,0.012713,-0.021344,-0.011816
17.769120,-0.001158,-0.052487,0.033931
17.779160,0.064950,-0.021555,-0.003127
17.799210,0.011639,-0.037471,0.011605
17.809220,-0.000109,-0.037357,-0.004450
17.819260,0.028717,-0.032222,0.019155
17.829300,-0.031005,-0.040526,0.009337
17.839310,-0.010724,-0.023455,-0.001209
17.849350,-0.026698,-0.029907,0.019013
17.869400,-0.007526,-0.031006,0.012651
17.879410,0.011664,-0.018162,-0.006463
17.879410,0.011664,-0.018162,-0.006463
17.899460,0.006347,-0.021415,0.007394
17.909500,-0.012863,-0.027735,0.001970
17.919541,-0.024558,-0.013783,-0.004406
17.949601,-0.002149,-0.012864,0.011684
17.959641,-0.040545,-0.013731,-0.004450
17.969651,-0.014942,-0.013890,0.011643
17.979691,-0.006401,-0.007500,0.009561
17.989731,0.017021,-0.012881,0.002123
18.009781,-0.028824,-0.007296,-0.018274
18.019791,-0.002112,-0.003288,0.019206
18.029831,0.002097,-0.014978,0.004208
18.039841,-0.001089,-0.008540,-0.000043
18.049881,-0.022372,-0.011806,0.027656
18.059922,-0.019232,-0.006249,-0.020379
18.079972,-0.040509,-0.009535,0.011593
18.089981,-0.040509,-0.014785,-0.016170
18.100022,0.030960,0.004045,0.026810
18.100022,0.030960,0.004045,0.026810
18.110031,-0.037361,-0.024472,0.006190
18.130082,-0.067239,-0.041497,0.013505
18.150162,-0.034186,-0.037338,0.014684
18.150162,-0.034186,-0.037338,0.014684
18.170212,-0.005436,-0.045964,0.012586
18.170212,-0.005436,-0.045964,0.012586
18.180222,0.014833,-0.038550,0.011609
18.190262,-0.016120,-0.051234,0.005054
18.200272,-0.019319,-0.054448,0.009303
18.230362,0.000933,-0.056674,0.014689
18.230362,0.000933,-0.056674,0.014689
18.240403,-0.010820,-0.059774,0.000756
18.250412,-0.002283,-0.058759,0.006125
18.260453,-0.017228,-0.066176,0.003912
18.270462,0.005170,-0.059836,0.002936
18.290543,0.000865,-0.073696,0.000722
18.290543,0.000865,-0.073696,0.000722
18.300553,-0.014051,-0.075818,0.008148
18.310593,-0.011894,-0.066209,0.007131
18.320603,0.006206,-0.065134,-0.006700
18.330643,-0.042801,-0.070421,0.015572
18.340653,0.016900,-0.052353,-0.006610
18.370743,0.009437,-0.057709,0.001890
18.370743,0.009437,-0.057709,0.001890
18.380783,-0.015074,-0.060869,0.009284
18.390793,-0.008689,-0.060859,0.002893
18.400833,-0.001199,-0.050204,0.002964
18.410843,-0.000128,-0.051301,0.008303
18.440934,-0.025716,-0.053344,0.006086
18.440934,-0.025716,-0.053344,0.006086
18.450974,0.001998,-0.048059,-0.001290
18.460984,-0.023571,-0.049084,0.007180
18.471024,-0.008636,-0.039481,-0.001279
18.481034,-0.003317,-0.043775,-0.000216
18.501084,-0.021443,-0.042618,-0.006670
18.501084,-0.021443,-0.042618,-0.006670
18.511124,-0.010748,-0.035227,0.004077
18.521164,-0.018229,-0.039449,-0.001305
18.531174,-0.032096,-0.042598,-0.003495
18.541214,-0.004342,-0.028820,-0.000148
18.551224,-0.019312,-0.043697,-0.005601
18.571274,-0.037397,-0.034053,-0.000264
18.581314,0.004173,-0.029891,-0.005471
18.591324,-0.004337,-0.032070,0.009450
18.601364,0.002046,-0.033128,0.003054
18.611405,0.015887,-0.034205,-0.004391
18.621415,-0.013932,-0.033106,0.009419
18.651505,0.019107,-0.024594,-0.006473
18.651505,0.019107,-0.024594,-0.006473
18.661515,0.017007,-0.022532,0.010623
18.671555,-0.016075,-0.037371,0.009393
18.681595,0.042574,-0.022575,0.002147
18.691605,0.001019,-0.022475,0.009510
18.721695,0.004210,-0.022466,0.005246
18.721695,0.004210,-0.022466,0.005246
18.731705,0.040474,-0.015128,0.009654
18.741745,-0.011775,-0.023497,0.008402
18.751786,0.026615,-0.015073,0.007480
18.761811,0.005316,-0.010747,0.010646
18.801911,0.022360,-0.008621,0.001089
18.801911,0.022360,-0.008621,0.001089
18.811952,-0.020271,-0.011717,0.007366
18.821962,0.006388,0.001078,-0.006387
18.832002,0.009594,-0.006499,0.012814
18.862092,-0.037318,-0.008448,0.005198
18.862092,-0.037318,-0.008448,0.005198
18.872102,0.040501,0.009561,-0.016934
18.882142,-0.067158,-0.018053,0.024298
18.892152,0.042633,0.014939,-0.026517
18.902192,-0.045829,-0.013856,0.025445
18.932283,-0.042616,-0.000990,0.012696
18.932283,-0.042616,-0.000990,0.012696
18.942292,0.003174,-0.003169,-0.009620
18.952333,-0.007431,0.003162,0.013881
18.962342,-0.036243,-0.002018,-0.000110
18.972383,-0.005320,0.003221,0.000001
19.002473,-0.027730,-0.000927,-0.010763
19.012483,-0.024515,-0.010686,0.018041
19.022523,-0.034120,-0.000922,-0.007576
19.032533,-0.011743,-0.004208,-0.005393
19.042573,-0.008530,-0.006425,0.009560
19.072663,-0.033110,-0.020138,-0.009801
19.072663,-0.033110,-0.020138,-0.009801
19.082673,0.011675,-0.027890,0.018060
19.092713,0.004210,-0.017080,-0.004342
19.102723,-0.001136,-0.027783,0.004138
19.112764,-0.008603,-0.037431,0.016891
19.142854,-0.004388,-0.045912,0.000839
19.152864,0.014851,-0.031064,0.009508
19.162904,-0.015016,-0.043818,0.016843
19.172914,0.028634,-0.041652,-0.019346
19.182954,-0.021406,-0.042734,0.017898
19.213044,-0.019303,-0.043728,0.000808
19.213044,-0.019303,-0.043728,0.000808
19.223054,0.037193,-0.039629,-0.001153
19.233094,-0.061968,-0.058566,0.005961
19.243104,0.029738,-0.032084,-0.010752
19.253144,-0.050260,-0.059631,-0.002557
19.283204,-0.025720,-0.050099,-0.002445
19.283204,-0.025720,-0.050099,-0.002445
19.293244,-0.022526,-0.049022,-0.006703
19.303285,-0.024669,-0.054364,-0.004598
19.313295,-0.053438,-0.054296,0.000664
19.323335,-0.010786,-0.039418,-0.013035
19.343385,-0.024628,-0.038335,-0.006659
19.343385,-0.024628,-0.038335,-0.006659
19.353395,-0.007578,-0.041615,-0.002354
19.363435,-0.023538,-0.036264,0.006173
19.373475,-0.020339,-0.027660,-0.008733
19.383485,-0.004319,-0.024584,0.007349
19.393525,-0.017150,-0.034108,-0.002345
19.413575,-0.032022,-0.024519,0.012614
19.423585,0.017031,-0.007526,-0.001057
19.433625,-0.022417,-0.018128,0.009466
19.443666,0.012788,-0.005422,0.008555
19.453675,0.031961,-0.007605,0.005393
19.463716,-0.044783,-0.017027,0.017955
19.493775,0.041608,0.011582,0.006579
19.493775,0.041608,0.011582,0.006579
19.503816,0.011702,-0.013972,0.010648
19.513826,0.004283,-0.009772,0.030944
19.523866,0.038371,0.005255,-0.008415
19.533906,-0.019186,-0.018244,0.031907
19.563966,-0.041634,-0.022271,-0.004493
19.563966,-0.041634,-0.022271,-0.004493
19.574006,0.055431,0.005175,-0.003027
19.584016,-0.051198,-0.020175,0.010445
19.594056,0.006356,-0.012826,-0.002180
19.604097,-0.000004,0.002166,-0.006399
19.624147,-0.000026,-0.010689,0.002086
19.634156,0.003177,-0.007486,-0.000027
19.644197,-0.033063,-0.008436,-0.000131
19.654206,-0.023474,-0.008457,-0.002241
19.664247,-0.004284,-0.004228,-0.006441
19.674287,-0.069334,-0.020061,-0.001355
19.704347,-0.046963,-0.023332,-0.002377
19.704347,-0.046963,-0.023332,-0.002377
19.714387,-0.037371,-0.021207,-0.006613
19.724397,0.003156,-0.011727,-0.006456
19.734437,-0.062995,-0.038216,-0.005696
19.744447,0.017027,-0.007516,-0.003193
19.764545,-0.001135,-0.028861,0.006270
19.774555,-0.048039,-0.030834,0.003994
19.784595,0.015944,-0.013920,-0.003226
19.794605,-0.061895,-0.030789,0.003956
19.804646,0.030857,-0.013943,-0.008526
19.814655,-0.038428,-0.025541,0.007250
19.844746,-0.019242,-0.026686,0.010503
19.844746,-0.019242,-0.026686,0.010503
19.854786,0.012718,-0.022438,-0.006480
19.864796,-0.036319,-0.036247,0.011478
19.874836,0.030844,-0.018210,-0.009615
19.884846,-0.041673,-0.044769,0.010355
19.904926,-0.011818,-0.024438,-0.018308
19.914936,-0.008597,-0.035295,0.016901
19.924976,0.005231,-0.030947,-0.008678
19.934986,-0.015011,-0.038448,0.010459
19.945026,0.002030,-0.036311,-0.001234
19.955036,-0.007583,-0.041600,-0.005559
19.985127,0.016958,-0.029917,-0.008640
19.995167,-0.047036,-0.051108,-0.000372
20.005177,-0.022514,-0.045828,-0.004552
20.015217,-0.029931,-0.028707,-0.006628
20.025227,-0.002242,-0.031960,-0.015112
20.045277,-0.018226,-0.028684,-0.019414
20.055317,-0.022494,-0.030811,-0.018368
20.065357,-0.039518,-0.023306,-0.013038
20.075367,-0.031011,-0.024351,-0.023702
20.085407,-0.049136,-0.030735,-0.016304
20.095417,-0.005416,-0.018021,-0.024669
20.115467,-0.058730,-0.028542,-0.021662
20.125507,-0.020351,-0.020083,-0.030061
20.135548,-0.036343,-0.023245,-0.027984
20.145557,-0.017142,-0.019051,-0.024706
20.155598,-0.042753,-0.026408,-0.032289
20.165607,-0.009684,-0.017992,-0.027885
20.185658,0.002037,-0.018020,-0.029990
20.195698,-0.024597,-0.016891,-0.024717
20.205738,0.012683,-0.020170,-0.034243
20.215748,-0.043830,-0.033910,-0.025919
20.225788,0.014828,-0.015911,-0.033149
20.235798,-0.036418,-0.031627,-0.062207
20.255848,-0.050275,-0.029420,-0.067576
20.265888,0.020164,-0.014875,-0.029925
20.275898,-0.077945,-0.033769,-0.032422
20.285938,0.020097,-0.025433,-0.055612
20.295979,-0.000086,-0.021273,-0.018260
20.305988,-0.024712,-0.035916,-0.066467
20.336079,0.010518,-0.022213,-0.052418
20.336079,0.010518,-0.022213,-0.052418
20.346088,0.036149,-0.012766,-0.035212
20.356129,-0.051350,-0.039084,-0.055874
20.366169,0.048925,-0.013840,-0.042659
20.376179,-0.011875,-0.027490,-0.050369
20.396229,-0.003355,-0.032883,-0.045030
20.406269,0.020109,-0.023317,-0.051329
20.416279,-0.021492,-0.038154,-0.047241
20.426319,0.023330,-0.013706,-0.053411
20.436359,-0.007653,-0.035992,-0.062148
20.446369,0.005155,-0.037167,-0.048231
20.466419,-0.018285,-0.030653,-0.054674
20.466419,-0.018285,-0.030653,-0.054674
20.476460,0.028641,-0.014746,-0.063015
20.486469,-0.046038,-0.042280,-0.061215
20.496510,-0.016133,-0.023184,-0.054633
20.506519,0.000886,-0.026363,-0.071693
20.516560,0.007288,-0.031794,-0.056746
20.536610,0.017957,-0.026479,-0.058827
20.546650,0.009420,-0.028572,-0.062066
20.556660,-0.009770,-0.024182,-0.073848
20.566700,0.013701,-0.016793,-0.071612
20.576710,-0.001204,-0.009254,-0.074822
20.586750,-0.047071,-0.025144,-0.070751
20.606800,-0.030036,-0.028373,-0.077129
20.616840,0.014765,-0.021098,-0.065220
20.626850,0.014772,-0.009270,-0.082255
20.636890,-0.024705,-0.030551,-0.071783
20.646900,0.008346,-0.019924,-0.083392
20.656940,0.024351,-0.015724,-0.079055
20.676991,0.052059,-0.010419,-0.090704
20.687031,-0.021507,-0.032718,-0.067512
20.697041,0.008298,-0.030542,-0.096261
20.707081,-0.004464,-0.027358,-0.083462
20.717091,0.041387,-0.023265,-0.076907
20.727131,0.006169,-0.035931,-0.084542
20.747181,0.015777,-0.029549,-0.085553
20.757266,0.030678,-0.032766,-0.093005
20.767276,0.000880,-0.025269,-0.077028
20.777316,0.016834,-0.026293,-0.097285
20.787326,0.047757,-0.022132,-0.095044
20.797366,0.018994,-0.018850,-0.091903
20.817416,0.021132,-0.016721,-0.091887
20.827457,-0.009791,-0.014419,-0.105848
20.837466,0.028603,-0.013546,-0.090783
20.847507,0.004064,-0.015542,-0.103679
20.857516,0.034996,-0.006021,-0.105685
20.867557,-0.007654,-0.017675,-0.096244
20.887607,0.005132,-0.017707,-0.098345
20.897647,-0.003407,-0.016560,-0.109046
20.907657,0.026449,-0.008083,-0.115332
20.917697,0.007254,-0.018761,-0.102617
20.927707,0.001905,-0.019756,-0.114387
20.937747,0.028580,-0.011319,-0.110001
20.967807,0.008297,-0.019767,-0.116506
20.977847,0.001863,-0.032551,-0.118721
20.987888,0.008292,-0.020830,-0.117579
20.997897,-0.004524,-0.030399,-0.117660
21.007938,-0.000287,-0.033561,-0.129413
21.027988,0.001837,-0.035699,-0.130486
21.037997,0.005039,-0.035725,-0.127272
21.048038,-0.003484,-0.034629,-0.127291
21.058078,0.010359,-0.032483,-0.138993
21.068088,-0.022668,-0.030260,-0.134801
21.078128,0.015678,-0.023850,-0.161370
21.098178,-0.044009,-0.033344,-0.145556
21.108188,0.031685,-0.018578,-0.158096
21.118228,0.001822,-0.027034,-0.156082
21.128268,-0.021644,-0.031210,-0.160439
21.138278,0.018866,-0.023830,-0.167770
21.148318,-0.007768,-0.020545,-0.166760
21.168369,-0.004617,-0.029028,-0.181746
21.178378,0.000727,-0.023706,-0.181706
21.188419,0.033782,-0.014166,-0.189047
21.198428,-0.009963,-0.030033,-0.191380
21.208469,-0.002487,-0.022567,-0.194528
21.218509,0.041231,-0.011999,-0.200767
21.238559,0.020955,-0.018315,-0.206194
21.248569,0.007075,-0.024658,-0.210535
21.258609,0.030525,-0.021510,-0.214728
21.268619,0.024118,-0.023605,-0.219029
21.278659,0.030517,-0.019328,-0.224332
21.288699,0.031813,0.003636,-0.113125
21.308749,0.090285,0.024379,-0.248529
21.318759,-0.028276,-0.071370,-0.245037
21.328799,0.001737,0.001243,-0.263838
21.338809,0.030502,-0.017127,-0.238208
21.348849,0.002742,-0.037348,-0.234108
21.358890,0.061387,-0.019307,-0.249884
21.378940,-0.003654,-0.037322,-0.235194
21.388950,0.031535,-0.021336,-0.252112
21.398990,0.078460,-0.012965,-0.247670
21.409000,-0.015414,-0.042558,-0.249138
21.419040,0.058176,-0.016022,-0.264832
21.429050,0.061375,-0.018194,-0.259492
21.459140,0.050700,-0.024567,-0.259552
21.469180,0.016566,-0.032984,-0.262891
21.479190,0.096561,-0.007583,-0.268959
21.489230,0.020829,-0.032998,-0.262879
21.499240,0.030429,-0.026591,-0.269231
21.519321,-0.010098,-0.041456,-0.259800
21.529330,0.074095,-0.013706,-0.313915
21.529330,0.074095,-0.013706,-0.313915
21.549380,-0.007995,-0.047835,-0.267302
21.559421,0.106046,-0.010505,-0.335176
21.559421,0.106046,-0.010505,-0.335176
21.579471,0.018676,-0.030769,-0.281034
21.599521,0.051706,-0.034075,-0.282027
21.609561,0.058104,-0.027643,-0.291592
21.619571,0.094374,-0.013863,-0.294632
21.629611,0.049580,-0.025469,-0.293742
21.639621,0.081559,-0.022359,-0.295775
21.649661,0.046357,-0.030763,-0.301254
21.669711,0.048505,-0.026514,-0.298023
21.679752,0.072997,-0.025449,-0.313973
21.689761,0.077296,-0.014804,-0.309638
21.689761,0.077296,-0.014804,-0.309638
21.709811,0.073013,-0.014730,-0.322468
21.719852,0.086879,-0.011576,-0.321347
21.739902,0.052745,-0.016759,-0.331080
21.749942,0.100733,-0.005153,-0.334097
21.759980,0.002585,-0.036852,-0.338791
21.770020,0.061273,-0.010329,-0.341708
21.770020,0.061273,-0.010329,-0.341708
21.780030,0.049526,-0.014527,-0.349238
21.800080,0.045251,-0.013400,-0.358858
21.820160,0.026027,-0.027215,-0.360045
21.830170,0.061230,-0.012348,-0.366286
21.830170,0.061230,-0.012348,-0.366286
21.850220,0.044132,-0.029385,-0.365346
21.860261,0.061201,-0.021950,-0.368468
21.860261,0.061201,-0.021950,-0.368468
21.870270,0.075052,-0.019828,-0.374829
21.900361,0.070779,-0.025169,-0.371662
21.900361,0.070779,-0.025169,-0.371662
21.910401,0.067558,-0.031546,-0.375974
21.920411,0.037711,-0.032512,-0.377129
21.930451,0.086758,-0.019811,-0.386547
21.940461,0.034482,-0.041020,-0.382519
21.970551,0.041945,-0.038898,-0.384625
21.970551,0.041945,-0.038898,-0.384625
21.980591,0.076050,-0.036853,-0.388794
21.990601,0.073913,-0.037904,-0.390941
22.000641,0.061121,-0.042164,-0.384587
22.010651,0.090974,-0.035833,-0.388748
22.040741,0.104813,-0.033672,-0.403654
22.040741,0.104813,-0.033672,-0.403654
22.050782,0.100554,-0.036902,-0.395136
22.060792,0.082427,-0.041125,-0.393069
22.070832,0.106941,-0.037976,-0.398328
22.080842,0.102674,-0.040103,-0.397281
22.110932,0.114375,-0.038992,-0.414335
22.110932,0.114375,-0.038992,-0.414335
22.120942,0.111181,-0.042226,-0.405814
22.130982,0.087705,-0.048522,-0.413386
22.141022,0.123967,-0.040101,-0.412177
22.151032,0.077028,-0.054890,-0.414514
22.171082,0.111149,-0.045354,-0.421852
22.171082,0.111149,-0.045354,-0.421852
22.181122,0.124997,-0.049686,-0.418629
22.191132,0.098315,-0.060253,-0.424094
22.201172,0.146290,-0.055069,-0.423937
22.211213,0.078047,-0.066595,-0.424180
22.221222,0.132424,-0.056067,-0.429321
22.251313,0.100421,-0.060179,-0.441179
22.251313,0.100421,-0.060179,-0.441179
22.261323,0.143055,-0.058171,-0.443188
22.271363,0.063097,-0.067533,-0.441317
22.281403,0.128151,-0.054944,-0.437873
22.291413,0.094018,-0.060133,-0.446538
22.321503,0.124928,-0.052697,-0.459236
22.321503,0.124928,-0.052697,-0.459236
22.331513,0.128139,-0.052753,-0.449613
22.341553,0.068404,-0.072865,-0.446669
22.351563,0.137713,-0.049494,-0.467731
22.361603,0.097241,-0.046220,-0.455009
22.381653,0.108887,-0.053551,-0.493467
22.381653,0.108887,-0.053551,-0.493467
22.391694,0.110014,-0.046211,-0.465656
22.401703,0.090698,-0.053270,-0.540517
22.411744,0.125903,-0.043798,-0.535034
22.421753,0.066235,-0.058737,-0.496814
22.431794,0.093888,-0.037099,-0.574615
22.461884,0.133364,-0.024432,-0.570173
22.461884,0.133364,-0.024432,-0.570173
22.471894,0.117393,-0.036279,-0.538227
22.481934,0.092814,-0.044612,-0.566108
22.491944,0.134394,-0.029710,-0.584082
22.501984,0.096072,-0.042658,-0.529770
22.532075,0.069394,-0.044622,-0.548013
22.532075,0.069394,-0.044622,-0.548013
22.542084,0.062971,-0.053129,-0.551275
22.552125,0.091792,-0.039360,-0.546858
22.562134,0.021450,-0.054214,-0.519349
22.572175,0.065161,-0.042548,-0.531991
22.602265,0.037421,-0.049908,-0.537444
22.602265,0.037421,-0.049908,-0.537444
22.612275,0.096078,-0.039444,-0.531891
22.622315,-0.018033,-0.065782,-0.530195
22.632325,0.118502,-0.024571,-0.530691
22.642365,0.042746,-0.053144,-0.534240
22.662415,0.107833,-0.026657,-0.533935
22.662415,0.107833,-0.026657,-0.533935
22.672455,0.056616,-0.047850,-0.534177
22.682465,0.063013,-0.046797,-0.535222
22.692505,0.138721,-0.028848,-0.543474
22.702515,0.061917,-0.056395,-0.537407
22.712555,0.093953,-0.027609,-0.548933
22.732606,0.091752,-0.045696,-0.561843
22.742646,0.098020,-0.029157,-0.676046
22.752656,0.157688,-0.008832,-0.723855
22.762708,0.077705,-0.034274,-0.709241
22.772718,0.115977,-0.021163,-0.797735
22.782758,0.155554,0.006262,-0.752631
22.812848,0.134999,0.009450,-0.960974
22.812848,0.134999,0.009450,-0.960974
22.822858,0.074120,-0.021185,-0.990129
22.832898,0.130395,-0.001306,-1.167203
22.842908,0.107936,0.008707,-1.236652
22.852948,0.092939,-0.010397,-1.251738
22.872998,0.142999,0.043404,-1.370985
22.883008,0.104674,0.021846,-1.302828
22.893048,0.132366,0.032587,-1.334747
22.903089,0.740583,0.131768,-1.044179
22.913098,0.567718,-0.112621,-0.737099
22.923139,0.199315,0.068399,-0.823786
22.943189,0.236719,-0.058076,-0.527318
22.953199,0.225071,-0.029194,-0.529350
22.963239,0.139888,-0.000088,-0.528379
22.973279,0.179219,-0.038667,-0.527385
22.983289,0.143028,-0.017150,-0.535929
22.993329,0.167592,0.000920,-0.534707
23.033429,0.137674,-0.025671,-0.537052
23.033429,0.137674,-0.025671,-0.537052
23.043470,0.164352,-0.019401,-0.526267
23.053479,0.132377,-0.020370,-0.525291
23.063520,0.167492,-0.033233,-0.539142
23.083570,0.125990,-0.013911,-0.531688
23.093579,0.153615,-0.046044,-0.530695
23.103620,0.100426,-0.009566,-0.529602
23.113629,0.160038,-0.033229,-0.534890
23.123670,0.103574,-0.027731,-0.529679
23.133710,0.104643,-0.023438,-0.534997
23.153760,0.085464,-0.026625,-0.525451
23.163770,0.099300,-0.026609,-0.538231
23.173810,0.106779,-0.028845,-0.522198
23.183820,0.080082,-0.043674,-0.529819
23.193860,0.086487,-0.038340,-0.532981
23.203900,0.120621,-0.032079,-0.525379
23.233960,0.072651,-0.041590,-0.513807
23.233960,0.072651,-0.041590,-0.513807
23.244001,0.101421,-0.038429,-0.524394
23.254010,0.124844,-0.056741,-0.507325
23.264051,0.075836,-0.048023,-0.510624
23.274091,0.132329,-0.044993,-0.512590
23.294141,0.106728,-0.055614,-0.507369
23.304151,0.131299,-0.036486,-0.504006
23.314191,0.120589,-0.058909,-0.497733
23.324201,0.109914,-0.060974,-0.505250
23.334241,0.119560,-0.046095,-0.496607
23.344251,0.132322,-0.054665,-0.499817
23.374341,0.117413,-0.054657,-0.491312
23.374341,0.117413,-0.054657,-0.491312
23.384381,0.112061,-0.063183,-0.491367
23.394391,0.142959,-0.061097,-0.501954
23.404431,0.099294,-0.056749,-0.488168
23.414441,0.110952,-0.070584,-0.506360
23.434522,0.060957,-0.042721,-0.492480
23.444532,0.137576,-0.082453,-0.498865
23.454572,0.107829,-0.049266,-0.495586
23.464582,0.117411,-0.050340,-0.500906
23.474622,0.119536,-0.057868,-0.491322
23.484632,0.105668,-0.063167,-0.490317
23.514722,0.095040,-0.049224,-0.495621
23.514722,0.095040,-0.049224,-0.495621
23.524762,0.141889,-0.064312,-0.498768
23.534772,0.086531,-0.043867,-0.493483
23.544812,0.109957,-0.051414,-0.494522
23.554822,0.122744,-0.048216,-0.501949
23.574872,0.098250,-0.042812,-0.498787
23.584912,0.122737,-0.052503,-0.498765
23.594953,0.105721,-0.041794,-0.493420
23.604962,0.112127,-0.034308,-0.499776
23.615003,0.129134,-0.054685,-0.493416
23.625013,0.069503,-0.035273,-0.492421
23.655103,0.102524,-0.036398,-0.503017
23.665143,0.099299,-0.044916,-0.506271
23.675153,0.076974,-0.023479,-0.507300
23.685193,0.087601,-0.035266,-0.506258
23.695203,0.103572,-0.041731,-0.505176
23.725293,0.072697,-0.026654,-0.510531
23.725293,0.072697,-0.026654,-0.510531
23.735334,0.107850,-0.036405,-0.505139
23.745343,0.066360,-0.006348,-0.509384
23.755384,0.114245,-0.035348,-0.507253
23.765441,0.080141,-0.035242,-0.506278
23.785491,0.114266,-0.023565,-0.514675
23.785491,0.114266,-0.023565,-0.514675
23.795532,0.107892,-0.030073,-0.489086
23.805541,0.124964,-0.014034,-0.504986
23.815582,0.115372,-0.019388,-0.495424
23.825622,0.111099,-0.020422,-0.499713
23.835632,0.138782,-0.030118,-0.500751
23.855682,0.122856,-0.005484,-0.504951
23.865722,0.123894,-0.022635,-0.492211
23.875732,0.100464,-0.013995,-0.496508
23.885772,0.111119,-0.010790,-0.503941
23.895812,0.114309,-0.019395,-0.493290
23.905822,0.095190,0.009547,-0.502820
23.935913,0.130306,-0.013014,-0.498557
23.935913,0.130306,-0.013014,-0.498557
23.945922,0.119655,-0.010848,-0.497508
23.955963,0.097313,0.004180,-0.498567
23.966003,0.137787,-0.006641,-0.496370
23.976013,0.109003,-0.003293,-0.507116
23.996063,0.094124,0.009551,-0.502823
24.006103,0.146300,-0.008779,-0.501697
24.016113,0.083465,0.006356,-0.497527
24.026153,0.134597,0.003042,-0.509151
24.036163,0.102636,0.003105,-0.500694
24.046203,0.102614,-0.004365,-0.501797
24.076293,0.110057,-0.005412,-0.511396
24.076293,0.110057,-0.005412,-0.511396
24.086303,0.123938,-0.000153,-0.503855
24.096343,0.080239,-0.000006,-0.505043
24.106353,0.111125,-0.007576,-0.506062
24.116394,0.122816,-0.017206,-0.510348
24.136444,0.106824,-0.022524,-0.504008
24.136444,0.106824,-0.022524,-0.504008
24.146484,0.092976,-0.014963,-0.512556
24.156494,0.112160,-0.018254,-0.507178
24.166534,0.078044,-0.020264,-0.510486
24.176544,0.114233,-0.038542,-0.509404
24.186584,0.069514,-0.020226,-0.512646
24.206634,0.090799,-0.032048,-0.511575
24.216674,0.075848,-0.046986,-0.504209
24.226684,0.097213,-0.022432,-0.516853
24.236724,0.109973,-0.035309,-0.512606
24.246734,0.072648,-0.045887,-0.508486
24.256774,0.121707,-0.031070,-0.513621
24.266784,0.086534,-0.029873,-0.516917
24.276824,0.091835,-0.045960,-0.506297
24.286865,0.109967,-0.036367,-0.514747
24.296874,0.095017,-0.048075,-0.512707
24.306915,0.071589,-0.041597,-0.511673
24.316925,0.115268,-0.045990,-0.515846
24.326965,0.093946,-0.052364,-0.508458
24.347015,0.101378,-0.059838,-0.513814
24.347015,0.101378,-0.059838,-0.513814
24.357055,0.083280,-0.051226,-0.515959
24.367065,0.098198,-0.053420,-0.513792
24.377105,0.074743,-0.059782,-0.507478
24.387115,0.115225,-0.063087,-0.513791
24.397155,0.081123,-0.065143,-0.507485
24.427246,0.110948,-0.071647,-0.507434
24.437255,0.075807,-0.059781,-0.508543
24.447296,0.124811,-0.067410,-0.509512
24.457305,0.094989,-0.061989,-0.506364
24.467346,0.115211,-0.072739,-0.505291
24.487396,0.142908,-0.076018,-0.508434
24.497436,0.080104,-0.049130,-0.505276
24.507446,0.112027,-0.060921,-0.518062
24.517486,0.112035,-0.068487,-0.498870
24.527496,0.096065,-0.053408,-0.514866
24.537536,0.120533,-0.070580,-0.513811
24.567596,0.110899,-0.082266,-0.520303
24.567596,0.110899,-0.082266,-0.520303
24.577636,0.059850,-0.039357,-0.525582
24.587676,0.113063,-0.065140,-0.529830
24.597686,0.084291,-0.065062,-0.526704
24.607727,0.080056,-0.053286,-0.529865
24.627777,0.114123,-0.060816,-0.541556
24.637786,0.066182,-0.056414,-0.536327
24.647827,0.103452,-0.065048,-0.542674
24.657867,0.093844,-0.068201,-0.546989
24.667877,0.099165,-0.071422,-0.546989
24.677917,0.102379,-0.061790,-0.553344
24.707977,0.113015,-0.062832,-0.566138
24.707977,0.113015,-0.062832,-0.566138
24.718017,0.077861,-0.063852,-0.552353
24.728057,0.111933,-0.071397,-0.560840
24.738067,0.095962,-0.064933,-0.561922
24.748107,0.103442,-0.057477,-0.562934
24.768169,0.107667,-0.072452,-0.560857
24.778179,0.107713,-0.055360,-0.561844
24.788220,0.111985,-0.048941,-0.567143
24.798229,0.125799,-0.072551,-0.552262
24.808270,0.111997,-0.048976,-0.559666
24.818310,0.125855,-0.046875,-0.561754
24.838360,0.099224,-0.046834,-0.552214
24.848370,0.179132,-0.056705,-0.552039
24.858410,0.101408,-0.033003,-0.542528
24.868420,0.162090,-0.054529,-0.548872
24.878460,0.141860,-0.050217,-0.543566
24.888500,0.132310,-0.034162,-0.544585
24.908550,0.118459,-0.033054,-0.543550
24.918560,0.161055,-0.050315,-0.536036
24.928600,0.123804,-0.032044,-0.534984
24.938610,0.167439,-0.054607,-0.536039
24.948650,0.118476,-0.036339,-0.526474
24.958691,0.162167,-0.029997,-0.542346
24.978741,0.134454,-0.037438,-0.530708
24.988751,0.173885,-0.038634,-0.530604
24.998791,0.141961,-0.026839,-0.518886
25.008801,0.158941,-0.049285,-0.526423
25.018841,0.179243,-0.033357,-0.520951
25.028851,0.151518,-0.037529,-0.523183
25.048931,0.171775,-0.035464,-0.522049
25.058941,0.159005,-0.027942,-0.523117
25.068981,0.187752,-0.040871,-0.518826
25.078991,0.140870,-0.032140,-0.526392
25.089031,0.179220,-0.041901,-0.520991
25.099041,0.145163,-0.023630,-0.522067
25.119122,0.135560,-0.027876,-0.521045
25.129131,0.160055,-0.030051,-0.529534
25.139172,0.148326,-0.034305,-0.525313
25.149181,0.150433,-0.043928,-0.524285
25.159222,0.120680,-0.007491,-0.530604
25.169231,0.172813,-0.039689,-0.532749
25.189312,0.144072,-0.027858,-0.530636
25.199322,0.122755,-0.024555,-0.537088
25.209362,0.133403,-0.032095,-0.530685
25.219372,0.127016,-0.026714,-0.534950
25.229412,0.112106,-0.020238,-0.539234
25.239422,0.119521,-0.042739,-0.528637
25.259472,0.139831,-0.020374,-0.529544
25.269512,0.085461,-0.024459,-0.531850
25.279553,0.141892,-0.038470,-0.543510
25.289562,0.125975,-0.018173,-0.533844
25.299603,0.103614,-0.009546,-0.536002
25.309612,0.114203,-0.035216,-0.535026
25.329662,0.094027,-0.007379,-0.536018
25.339703,0.116357,-0.027753,-0.533916
25.349743,0.090814,-0.013782,-0.534989
25.359753,0.111065,-0.017082,-0.528539
25.369793,0.103615,-0.007395,-0.539196
25.379803,0.099329,-0.024544,-0.523266
25.409893,0.078013,-0.020168,-0.530782
25.419933,0.135514,-0.033114,-0.542435
25.419933,0.135514,-0.033114,-0.542435
25.429943,0.083439,0.009671,-0.521012
25.439983,0.101465,-0.017025,-0.533907
25.449993,0.134498,-0.024653,-0.524238
25.490093,0.142006,-0.008669,-0.522005
25.490093,0.142006,-0.008669,-0.522005
25.500134,0.122824,-0.010768,-0.516727
25.510174,0.118528,-0.021423,-0.518925
25.520184,0.132397,-0.017201,-0.517799
25.550274,0.151573,-0.021546,-0.515630
25.550274,0.151573,-0.021546,-0.515630
25.560284,0.120686,-0.010741,-0.521005
25.570324,0.111090,-0.016084,-0.513580
25.580364,0.127075,-0.011819,-0.523129
25.590374,0.143010,-0.035406,-0.514651
25.620464,0.091885,-0.021342,-0.517931
25.620464,0.091885,-0.021342,-0.517931
25.630474,0.128124,-0.016079,-0.526351
25.640514,0.132379,-0.022531,-0.519961
25.650555,0.115285,-0.037426,-0.520078
25.660564,0.123832,-0.027823,-0.524282
25.690655,0.137639,-0.047105,-0.521131
25.690655,0.137639,-0.047105,-0.521131
25.700665,0.115318,-0.021372,-0.527480
25.710705,0.147261,-0.036457,-0.521054
25.720715,0.108862,-0.044856,-0.525472
25.730755,0.151541,-0.036527,-0.509292
25.750805,0.162098,-0.071788,-0.512634
25.760845,0.109994,-0.026755,-0.514701
25.770902,0.176022,-0.046198,-0.513543
25.780942,0.092873,-0.055569,-0.507408
25.790952,0.141922,-0.041795,-0.517889
25.800992,0.148312,-0.043957,-0.516813
25.841092,0.116373,-0.035345,-0.509383
25.841092,0.116373,-0.035345,-0.509383
25.851133,0.137658,-0.052551,-0.498724
25.861142,0.141941,-0.037548,-0.512528
25.871183,0.123823,-0.039646,-0.508315
25.911283,0.112148,-0.021448,-0.509329
25.911283,0.112148,-0.021448,-0.509329
25.921323,0.176026,-0.050520,-0.502881
25.931333,0.092920,-0.039560,-0.505195
25.941373,0.157936,-0.037626,-0.507143
25.961423,0.145101,-0.051442,-0.512585
25.961423,0.145101,-0.051442,-0.512585
25.971464,0.092942,-0.031012,-0.506223
25.981473,0.138703,-0.052489,-0.512607
25.991514,0.093957,-0.047014,-0.510569
26.001523,0.133340,-0.064214,-0.513746
26.011564,0.097172,-0.038461,-0.514792
26.031614,0.131179,-0.071652,-0.520196
26.031614,0.131179,-0.071652,-0.520196
26.041654,0.080100,-0.046964,-0.511675
26.051664,0.116294,-0.058794,-0.519108
26.061704,0.091799,-0.054462,-0.514883
26.071714,0.108886,-0.043854,-0.511581
26.081754,0.099266,-0.054507,-0.510589
26.111844,0.118463,-0.049225,-0.511580
26.111844,0.118463,-0.049225,-0.511580
26.121854,0.074729,-0.061893,-0.512829
26.131894,0.092853,-0.059816,-0.512769
26.141904,0.123794,-0.043862,-0.520085
26.151944,0.049168,-0.058636,-0.506475
26.182035,0.051339,-0.042609,-0.509597
26.182035,0.051339,-0.042609,-0.509597
26.192045,0.104557,-0.070563,-0.506378
26.202085,0.092913,-0.042769,-0.504142
26.212095,0.106715,-0.059881,-0.508458
26.222135,0.068404,-0.041627,-0.503136
26.252195,0.119535,-0.054633,-0.497716
26.252195,0.119535,-0.054633,-0.497716
26.262235,0.109982,-0.046109,-0.487019
26.272275,0.120597,-0.058934,-0.492392
26.282285,0.100413,-0.039686,-0.483811
26.292325,0.116340,-0.055706,-0.494525
26.322385,0.110007,-0.035415,-0.490173
26.332425,0.144083,-0.050512,-0.482673
26.342466,0.075894,-0.043898,-0.479626
26.352475,0.117474,-0.036538,-0.483749
26.362516,0.113180,-0.051505,-0.477422
26.392576,0.088718,-0.033276,-0.476335
26.392576,0.088718,-0.033276,-0.476335
26.402616,0.165390,-0.060248,-0.470910
26.412656,0.115399,-0.025937,-0.465545
26.422666,0.151571,-0.052779,-0.460231
26.432706,0.146275,-0.038863,-0.463384
26.462766,0.154820,-0.035717,-0.456936
26.462766,0.154820,-0.035717,-0.456936
26.472806,0.154794,-0.045329,-0.456982
26.482816,0.120759,-0.023900,-0.448429
26.492856,0.134572,-0.036735,-0.453793
26.502897,0.129261,-0.034622,-0.445252
26.522947,0.131389,-0.036770,-0.444188
26.532956,0.105851,-0.023892,-0.439924
26.542997,0.123924,-0.037808,-0.445281
26.553006,0.127191,-0.018652,-0.433431
26.563047,0.092015,-0.022829,-0.429275
26.573087,0.135668,-0.037912,-0.431363
26.603147,0.102687,-0.025066,-0.415370
26.603147,0.102687,-0.025066,-0.415370
26.613187,0.108012,-0.021839,-0.423885
26.623197,0.109112,-0.015485,-0.413170
26.633237,0.081408,-0.018650,-0.402580
26.643277,0.114411,-0.031567,-0.403618
26.673337,0.122961,-0.028436,-0.393965
26.673337,0.122961,-0.028436,-0.393965
26.683378,0.097401,-0.023029,-0.390806
26.693387,0.087856,-0.011296,-0.381163
26.703428,0.117672,-0.022082,-0.378995
26.713437,0.092107,-0.020967,-0.371583
26.753568,0.069768,-0.013489,-0.356654
26.753568,0.069768,-0.013489,-0.356654
26.763600,0.081478,-0.023179,-0.348122
26.773640,0.078284,-0.018872,-0.353452
26.783650,0.078311,-0.014646,-0.343818
26.803730,0.084715,-0.015775,-0.335259
26.813740,0.052757,-0.015722,-0.324665
26.823780,0.052742,-0.023212,-0.321496
26.833790,0.073029,-0.007239,-0.325637
26.843830,0.065546,-0.020070,-0.317173
26.853840,0.031502,-0.002918,-0.307572
26.883931,0.020840,-0.011488,-0.294824
26.883931,0.020840,-0.011488,-0.294824
26.893971,0.073050,-0.014846,-0.297900
26.903981,0.049617,-0.013737,-0.290482
26.914021,0.047480,-0.020179,-0.281973
26.924031,0.059213,-0.015935,-0.284056
26.954121,0.048580,-0.013825,-0.271257
26.954121,0.048580,-0.013825,-0.271257
26.964161,0.047514,-0.014900,-0.269129
26.974171,0.041109,-0.025619,-0.256379
26.984211,0.080519,-0.027822,-0.269099
26.994221,0.034739,-0.020289,-0.249962
27.014271,0.072027,-0.026828,-0.247753
27.024311,0.030495,-0.021414,-0.235024
27.034352,0.079448,-0.039652,-0.250998
27.044361,0.031570,-0.020369,-0.230743
27.054402,0.076278,-0.039727,-0.232848
27.064412,0.059273,-0.021512,-0.233877
27.084462,0.049685,-0.023647,-0.227504
27.094502,0.082710,-0.036636,-0.213587
27.104542,0.036890,-0.027898,-0.223287
27.114552,0.074156,-0.047292,-0.212593
27.124592,0.026301,-0.005462,-0.217869
27.134602,0.083740,-0.054839,-0.204057
27.164692,0.052889,-0.026912,-0.216828
27.164692,0.052889,-0.026912,-0.216828
27.174733,0.063554,-0.033430,-0.200807
27.184742,0.052895,-0.030161,-0.207230
27.194783,0.084884,-0.032467,-0.193266
27.204792,0.049713,-0.029124,-0.198688
27.224842,0.089165,-0.029307,-0.186830
27.234883,0.043315,-0.034478,-0.191254
27.244893,0.063613,-0.019613,-0.186854
27.254933,0.078516,-0.026069,-0.186844
27.264973,0.041244,-0.021737,-0.174108
27.274983,0.078544,-0.022926,-0.174010
27.305073,0.056170,-0.021800,-0.170862
27.305073,0.056170,-0.021800,-0.170862
27.315083,0.058300,-0.027187,-0.162336
27.325123,0.042356,-0.013268,-0.159109
27.335164,0.046587,-0.025029,-0.159153
27.345173,0.054089,-0.014414,-0.150537
27.365223,0.034907,-0.015435,-0.147390
27.375264,0.062604,-0.025177,-0.138814
27.385273,0.069041,-0.016715,-0.125937
27.395314,0.035984,-0.015474,-0.139910
27.405354,0.037048,-0.026243,-0.121798
27.415364,0.062604,-0.031640,-0.127094
27.445454,0.001905,-0.015449,-0.121844
27.445454,0.001905,-0.015449,-0.121844
27.455464,0.031749,-0.014473,-0.122825
27.465504,0.004033,-0.017597,-0.120780
27.475514,-0.019394,-0.011123,-0.118678
27.485554,0.013627,-0.020867,-0.113292
27.505604,-0.017250,-0.007936,-0.116520
27.515644,0.025373,-0.012357,-0.114287
27.525654,0.010445,-0.015517,-0.113275
27.535695,0.009388,-0.006925,-0.122851
27.545704,0.018967,-0.012301,-0.121782
27.555745,0.002990,-0.015513,-0.109023
27.575795,0.009369,-0.013327,-0.123950
27.585835,-0.000240,-0.021860,-0.119744
27.595845,-0.004530,-0.024994,-0.131521
27.605885,-0.021556,-0.018561,-0.125128
27.615895,-0.010938,-0.023855,-0.142215
27.625935,-0.019460,-0.028149,-0.131577
27.656025,0.000807,-0.023959,-0.128297
27.666035,0.018942,-0.014376,-0.134611
27.676075,0.023184,-0.027250,-0.125046
27.686085,0.023162,-0.031487,-0.132543
27.696125,0.013634,-0.009039,-0.130327
27.716175,0.029556,-0.036893,-0.122937
27.726216,0.033860,-0.026262,-0.115398
27.736226,0.065827,-0.018805,-0.133434
27.746266,0.025302,-0.033675,-0.122934
27.756276,0.046603,-0.039084,-0.122901
27.766327,0.047695,-0.029476,-0.122852
27.786377,0.039126,-0.045472,-0.121883
27.796417,0.047656,-0.047666,-0.115461
27.806427,0.057236,-0.046579,-0.126111
27.816467,0.056199,-0.046666,-0.106887
27.826477,0.041238,-0.055111,-0.117650
27.836517,0.033782,-0.054024,-0.116597
27.866608,0.034848,-0.055105,-0.114463
27.876617,0.034787,-0.074302,-0.119895
27.886658,0.046491,-0.082894,-0.117767
27.896667,0.048632,-0.076468,-0.123072
27.906708,0.035869,-0.068971,-0.118799
27.926758,0.028404,-0.076473,-0.108173
27.936768,0.057115,-0.095749,-0.116730
27.946808,0.043293,-0.079650,-0.124170
27.956848,0.013423,-0.092393,-0.118972
27.966858,0.021898,-0.110570,-0.120102
27.976898,0.033706,-0.089331,-0.102878
28.006958,0.024062,-0.104215,-0.110452
28.006958,0.024062,-0.104215,-0.110452
28.016998,0.069840,-0.119285,-0.116807
28.027039,0.023093,-0.071126,-0.106026
28.037048,0.048579,-0.102154,-0.111443
28.047089,0.002763,-0.096660,-0.112612
28.067139,0.027305,-0.082827,-0.118888
28.077148,0.002842,-0.075368,-0.098624
28.087189,0.012366,-0.088108,-0.121091
28.097229,0.008126,-0.090321,-0.101885
28.107239,0.001783,-0.067843,-0.108206
28.117279,0.032695,-0.060418,-0.118767
28.127289,-0.009948,-0.078555,-0.093334
28.137329,-0.001385,-0.057154,-0.108164
28.147339,0.025265,-0.058333,-0.102755
28.157379,0.014616,-0.058329,-0.096375
28.167389,0.022082,-0.048676,-0.110195
28.177429,0.009286,-0.060463,-0.093195
28.187469,0.008240,-0.048672,-0.101688
28.207519,-0.002372,-0.028316,-0.108030
28.207519,-0.002372,-0.028316,-0.108030
28.217529,-0.003477,-0.043269,-0.107036
28.227570,0.010412,-0.033728,-0.101611
28.237579,0.010443,-0.026282,-0.095166
28.247620,0.040270,-0.025256,-0.106830
28.257660,0.013656,-0.019880,-0.096196
28.277710,0.024271,-0.033783,-0.099437
28.287720,0.006227,-0.004875,-0.102554
28.297760,0.035997,-0.030597,-0.103662
28.307770,0.004071,-0.012333,-0.104732
28.317810,0.000850,-0.016554,-0.113307
28.327850,0.007219,-0.030498,-0.104809
28.347900,0.030655,-0.027305,-0.118616
28.357910,-0.049193,-0.005778,-0.099507
28.367950,0.013646,-0.003689,-0.132438
28.377960,0.028556,-0.024170,-0.102584
28.388000,-0.023596,0.007010,-0.111126
28.398041,0.004059,-0.009064,-0.118603
28.428101,0.012596,-0.010200,-0.110039
28.438141,0.013680,-0.001645,-0.113201
28.448151,-0.030032,-0.007920,-0.111215
28.458191,-0.010875,-0.014360,-0.117601
28.468201,0.036040,-0.009188,-0.114243
28.488281,-0.017246,-0.013337,-0.103727
28.488281,-0.017246,-0.013337,-0.103727
28.498291,0.011517,-0.009078,-0.120719
28.508331,0.013635,-0.024122,-0.102625
28.518341,0.017925,-0.016680,-0.098305
28.528381,0.027527,-0.004893,-0.113178
28.538391,0.015802,-0.018855,-0.088707
28.558472,-0.000148,-0.001686,-0.095079
28.568481,0.034918,-0.032704,-0.109016
28.578522,0.001940,-0.019867,-0.090887
28.588531,0.007265,-0.011255,-0.108991
28.598572,-0.001263,-0.021993,-0.090906
28.608581,-0.002355,-0.027294,-0.098411
28.628662,0.022205,-0.016750,-0.086543
28.638672,0.000817,-0.034764,-0.101642
28.648712,-0.015084,-0.005899,-0.097277
28.658722,0.025338,-0.040254,-0.086646
28.668762,0.012571,-0.028435,-0.093034
28.678772,0.011578,-0.003885,-0.089716
28.698822,0.010457,-0.025250,-0.087684
28.708862,0.006205,-0.019886,-0.089807
28.718903,0.055219,-0.031854,-0.076909
28.728912,0.029697,-0.011485,-0.075815
28.738953,0.017940,-0.018882,-0.084429
28.748962,0.026432,-0.038193,-0.071678
28.769055,0.037174,-0.008331,-0.070439
28.779096,0.054169,-0.031901,-0.066230
28.789136,0.039291,-0.014755,-0.068327
28.799146,0.021155,-0.028645,-0.054556
28.809186,0.022162,-0.036003,-0.080225
28.819196,0.032891,-0.017948,-0.066223
28.839246,0.037143,-0.023312,-0.064100
28.849286,0.023292,-0.028667,-0.051345
28.859326,0.016866,-0.033936,-0.062070
28.869336,0.007269,-0.026348,-0.079152
28.879376,0.013710,-0.025437,-0.050288
28.889386,0.023366,0.006645,-0.066133
28.909436,-0.025714,-0.014569,-0.063165
28.919477,-0.009752,-0.016696,-0.075949
28.919477,-0.009752,-0.016696,-0.075949
28.939527,-0.002182,0.012017,-0.055496
28.949567,0.025465,-0.014801,-0.049137
28.959577,-0.004370,-0.008266,-0.055598
28.979627,-0.000109,-0.009348,-0.055592
28.989667,0.037198,-0.009485,-0.052285
28.999677,0.027669,0.000042,-0.027697
29.009717,0.054273,-0.008533,-0.039414
29.019757,0.018036,-0.009493,-0.037383
29.029767,0.025426,-0.031913,-0.043877
29.049817,0.040380,-0.018064,-0.046975
29.059857,0.032998,0.002180,-0.031945
29.069867,0.032998,-0.028871,-0.030959
29.079907,0.013774,-0.008406,-0.038457
29.089948,0.014793,-0.038423,-0.015096
29.099957,0.012636,-0.025409,-0.055632
29.120008,0.046748,-0.042773,-0.020369
29.120008,0.046748,-0.042773,-0.020369
29.130048,0.002085,0.007681,-0.044823
29.140058,0.014802,-0.041682,-0.003361
29.150098,0.003034,-0.035039,-0.045022
29.170148,0.011550,-0.038266,-0.046082
29.200238,0.002005,-0.036230,-0.018325
29.200238,0.002005,-0.036230,-0.018325
29.210248,-0.007637,-0.043584,-0.037615
29.220288,-0.005530,-0.063977,-0.017409
29.230298,-0.016137,-0.037174,-0.032267
29.240338,0.016842,-0.058635,-0.033345
29.260388,0.040256,-0.070453,-0.034405
29.260388,0.040256,-0.070453,-0.034405
29.270429,-0.020388,-0.047971,-0.004556
29.280438,0.007224,-0.063908,-0.040874
29.290479,-0.007652,-0.058616,-0.020594
29.300488,-0.006596,-0.071515,-0.003561
29.310529,0.028522,-0.063921,-0.052566
29.340619,-0.032101,-0.047968,0.002889
29.340619,-0.032101,-0.047968,0.002889
29.350629,-0.031125,-0.058459,-0.037750
29.360669,-0.021522,-0.059603,-0.028115
29.370679,-0.063014,-0.045696,-0.004663
29.380719,0.034913,-0.073624,-0.037639
29.400769,-0.015185,-0.071290,-0.045244
29.400769,-0.015185,-0.071290,-0.045244
29.410810,0.000921,-0.049098,-0.006639
29.420819,-0.060913,-0.047763,-0.020690
29.430860,0.019994,-0.073581,-0.036612
29.440869,-0.045943,-0.044734,0.006071
29.450910,0.003987,-0.077775,-0.042017
29.470960,0.015748,-0.071466,-0.029136
29.481000,0.017895,-0.075831,-0.010991
29.491010,-0.026810,-0.056483,-0.006751
29.501050,0.002979,-0.066106,-0.024873
29.511060,-0.023627,-0.073682,0.014541
29.521100,0.002910,-0.083122,-0.039909
29.561200,0.008293,-0.097315,0.021995
29.561200,0.008293,-0.097315,0.021995
29.571240,0.028536,-0.085507,-0.004598
29.581250,0.015630,-0.110949,-0.035733
29.591290,-0.009793,-0.079046,0.010281
29.621381,-0.019348,-0.074824,0.027366
29.621381,-0.019348,-0.074824,0.027366
29.631391,0.036991,-0.083156,-0.055838
29.641431,0.033919,-0.091082,0.041323
29.651441,0.052050,-0.039476,-0.043840
29.661481,0.024479,-0.061371,0.088439
29.691541,-0.153181,0.026498,0.147115
29.691541,-0.153181,0.026498,0.147115
29.701581,0.005279,0.041075,-0.107681
29.711621,-0.050796,0.073347,0.107028
29.721631,-0.029660,0.133092,-0.120160
29.731671,0.005691,0.113021,0.034733
29.741681,-0.106012,0.208602,-0.001443
29.751721,0.026944,0.127154,-0.032439
29.761731,-0.097370,0.248068,0.003041
29.771811,0.011204,0.238452,-0.070411
29.781852,-0.044038,0.257455,0.013915
29.791862,-0.020484,0.317365,-0.024192
29.801902,0.046553,0.275478,-0.019932
29.811912,-0.017210,0.317112,0.027090
29.821952,0.046764,0.360988,-0.035551
29.831962,0.034127,0.379933,0.031802
29.842002,0.019100,0.362004,-0.005712
29.852042,0.023412,0.360760,0.028477
29.862052,0.091584,0.361738,0.000896
29.872092,0.056332,0.320097,0.023034
29.882102,0.072392,0.333817,0.046644
29.892142,0.103205,0.334020,-0.017362
29.902152,0.096870,0.315537,0.056239
29.912192,0.093534,0.270745,0.045336
29.922202,0.054046,0.280737,-0.008136
29.932242,0.022007,0.245498,0.012973
29.942283,0.016466,0.161089,0.025376
29.962333,-0.036976,0.091725,0.050538
29.972342,0.016198,0.094072,-0.030488
29.982383,-0.005100,0.069311,0.025951
29.992393,-0.041468,0.024601,0.020298
30.002433,-0.068229,0.002433,-0.016200
30.012473,-0.069523,-0.084096,-0.010204
30.042533,-0.129229,-0.094606,-0.005078
30.042533,-0.129229,-0.094606,-0.005078
30.052573,-0.055977,-0.200575,-0.004308
30.062583,-0.039930,-0.185737,0.008625
30.072623,-0.070901,-0.190824,-0.023531
30.082664,-0.040996,-0.202967,0.039519
30.112723,-0.036840,-0.241421,0.038280
30.112723,-0.036840,-0.241421,0.038280
30.122764,-0.037880,-0.222109,0.020209
30.132773,0.019577,-0.260772,0.026594
30.142814,-0.033632,-0.232848,0.029784
30.152854,-0.010240,-0.252136,0.027621
30.192954,-0.029385,-0.239274,0.030833
30.192954,-0.029385,-0.239274,0.030833
30.202964,-0.029358,-0.226434,0.025553
30.213004,-0.035717,-0.213598,0.025596
30.223014,-0.045287,-0.202867,0.021348
30.253104,-0.020693,-0.178425,0.030077
30.253104,-0.020693,-0.178425,0.030077
30.263144,-0.008920,-0.159230,0.028064
30.273154,-0.040847,-0.140961,0.025926
30.283195,-0.017422,-0.148508,0.024886
30.293204,-0.016224,-0.100455,0.025117
30.323295,0.016893,-0.070645,0.022145
30.323295,0.016893,-0.070645,0.022145
30.333335,0.014796,-0.063208,0.031788
30.343345,0.003103,-0.055725,0.038201
30.353385,0.040437,-0.041943,0.034096
30.363395,0.054306,-0.038799,0.037354
30.383475,0.017050,-0.016206,0.027744
30.383475,0.017050,-0.016206,0.027744
30.393485,0.013939,0.003999,0.048127
30.403525,0.035181,-0.006608,0.018226
30.413535,0.006531,0.029709,0.036478
30.423575,0.035271,0.017884,0.033297
30.433585,0.020333,0.021217,0.016180
30.453635,-0.016889,0.055552,0.007694
30.463675,-0.018980,0.056506,0.033329
30.473716,-0.008317,0.063997,0.022712
30.483726,-0.008350,0.066254,-0.002914
30.493766,-0.045578,0.070450,0.038663
30.503776,-0.051992,0.081302,0.006650
30.533866,-0.031788,0.074920,-0.012552
30.533866,-0.031788,0.074920,-0.012552
30.543906,-0.053057,0.076993,0.015173
30.553916,-0.079642,0.100589,0.012006
30.563956,-0.013656,0.071586,0.002437
30.573966,-0.038087,0.083256,0.035540
30.604056,-0.028548,0.065080,0.033344
30.604056,-0.028548,0.065080,0.033344
30.614097,-0.000866,0.071544,0.002472
30.624106,0.015121,0.048869,0.044070
30.634147,0.003352,0.054439,0.003471
30.644156,-0.004056,0.053218,0.040833
30.664206,0.018243,0.031863,0.024770
30.664206,0.018243,0.031863,0.024770
30.674247,-0.011548,0.045802,0.033299
30.684257,0.015015,0.028740,0.009791
30.694297,-0.026456,0.049039,0.036478
30.704337,0.037359,0.007243,0.023638
30.714347,-0.000981,0.019125,0.021452
30.744437,0.038277,-0.037538,0.007406
30.744437,0.038277,-0.037538,0.007406
30.754447,-0.021261,0.005282,0.026672
30.764487,0.010681,0.005280,0.005396
30.774539,0.003205,-0.012962,0.028789
30.784548,-0.019204,-0.012803,0.010568
30.814639,-0.042708,-0.033013,0.009340
30.814639,-0.042708,-0.033013,0.009340
30.824648,-0.008636,-0.041637,0.002984
30.834689,-0.016062,-0.040646,0.024332
30.844729,-0.027823,-0.044798,0.007189
30.854739,0.005182,-0.063106,0.016807
30.874789,-0.034253,-0.061900,0.014567
30.884829,-0.002303,-0.069469,0.012484
30.894839,0.020039,-0.088805,0.021000
30.904879,-0.016186,-0.085494,0.023052
30.914889,-0.018337,-0.086504,0.012359
30.924929,0.004014,-0.109099,0.032610
30.955019,0.026298,-0.128253,0.002671
30.955019,0.026298,-0.128253,0.002671
30.965029,-0.019455,-0.120806,0.039967
30.975070,0.020956,-0.144351,0.022876
30.985079,0.017788,-0.127198,0.011198
30.995120,0.000734,-0.142220,0.037785
31.015170,-0.001399,-0.138979,0.031385
31.025210,0.014526,-0.157145,0.022797
31.035220,-0.043978,-0.113155,0.019639
31.045260,-0.015298,-0.148490,0.019551
31.055270,-0.034475,-0.147375,0.022708
31.065310,-0.046177,-0.135554,0.015254
31.095400,-0.083445,-0.129081,0.026932
31.095400,-0.083445,-0.129081,0.026932
31.105410,-0.035531,-0.116163,-0.027353
31.115450,-0.047992,-0.067609,0.102096
31.125460,-0.039651,-0.119834,0.074098
31.135500,-0.033258,-0.060603,-0.034561
31.155550,-0.021496,-0.041372,-0.044052
31.165591,0.051180,-0.035782,0.079020
31.175601,-0.053236,-0.016154,0.064937
31.185641,0.045723,-0.015970,-0.041609
31.195651,-0.028597,0.009219,0.102513
31.205691,0.015985,0.009650,-0.019138
31.235781,-0.013702,0.056650,-0.000838
31.245791,-0.050921,0.066201,0.037560
31.255831,-0.016845,0.075878,0.000312
31.265841,-0.072216,0.090979,0.006640
31.275881,-0.076415,0.110180,0.014197
31.295931,-0.117938,0.124183,0.017353
31.305972,-0.061578,0.108244,-0.038114
31.315981,-0.079618,0.114518,0.002458
31.326022,-0.090262,0.129589,-0.015660
31.336031,-0.095572,0.137087,-0.016707
31.346072,-0.080703,0.121045,-0.022083
31.376162,-0.021043,0.115542,-0.028353
31.386172,0.005607,0.094973,0.012215
31.396212,0.003424,0.090834,-0.014516
31.406222,-0.027443,0.092959,0.008910
31.416262,-0.007255,0.073701,0.002465
31.446322,0.028767,0.004244,-0.013787
31.446322,0.028767,0.004244,-0.013787
31.456362,-0.029695,0.041640,0.022547
31.466403,0.010654,0.008595,-0.018090
31.476412,-0.005253,0.017013,0.019294
31.486453,-0.017057,-0.009627,0.014862
31.506503,-0.031966,-0.000999,0.007384
31.506503,-0.031966,-0.000999,0.007384
31.516512,-0.046963,-0.029795,0.009343
31.526553,-0.053350,-0.016873,-0.008773
31.536593,-0.040580,-0.034088,0.009341
31.546603,-0.046972,-0.029765,0.002934
31.556643,-0.033195,-0.050030,-0.012079
31.576693,-0.071538,-0.045679,-0.002550
31.586703,-0.008660,-0.053409,0.008269
31.596743,-0.039628,-0.075740,0.009146
31.606783,0.010550,-0.040626,0.001973
31.616793,-0.108808,-0.042430,0.013385
31.626833,0.049804,-0.105893,0.000705
31.656893,0.004111,-0.060931,0.009337
31.656893,0.004111,-0.060931,0.009337
31.666934,-0.006578,-0.072649,0.010320
31.676943,0.009494,-0.042809,0.012642
31.686984,-0.008654,-0.045888,-0.001309
31.697024,0.011506,-0.089835,0.018835
31.717074,-0.004424,-0.068420,0.017824
31.727084,-0.008642,-0.048080,0.010431
31.737124,0.032860,-0.076021,0.018959
31.747134,-0.004395,-0.055584,0.013612
31.757174,0.003062,-0.053442,0.007233
31.767214,0.009415,-0.075950,0.019963
31.787309,0.001998,-0.054522,0.010430
31.797319,0.007301,-0.071692,0.024250
31.807359,0.007301,-0.056609,-0.003452
31.817369,0.015850,-0.066405,0.029640
31.827409,0.010549,-0.042777,0.005168
31.837450,0.004141,-0.056720,0.022176
31.867510,0.019005,-0.070591,0.009333
31.877550,0.025406,-0.074939,0.021080
31.887560,-0.052295,-0.029768,0.007192
31.897600,0.089254,-0.098530,-0.002356
31.907640,-0.034145,-0.028850,0.026474
31.937700,0.003038,-0.065215,0.012518
31.937700,0.003038,-0.065215,0.012518
31.947740,0.028565,-0.080213,0.005041
31.957750,-0.052224,-0.014913,0.027559
31.967790,0.033816,-0.093987,-0.021715
31.977800,0.034026,-0.041871,0.023397
31.997881,0.041345,-0.080225,-0.001333
32.007890,0.006285,-0.048148,0.014745
32.017931,0.012622,-0.071684,0.018924
32.027940,0.004047,-0.076889,-0.003557
32.037981,-0.019329,-0.068422,0.028465
32.047991,0.024240,-0.103704,0.007054
32.068071,0.002909,-0.118667,0.024016
32.078081,0.012455,-0.126092,0.006915
32.088121,-0.009910,-0.123919,0.014341
32.098131,-0.028048,-0.132414,0.016387
32.108171,-0.003595,-0.143077,-0.003891
32.118181,0.001683,-0.173092,0.016277
32.138261,-0.007922,-0.173021,0.007705
32.148271,-0.007911,-0.166593,0.003463
32.158312,-0.039881,-0.169733,0.011905
32.168321,-0.015428,-0.190088,0.008672
32.178362,-0.011156,-0.181513,-0.000889
32.188371,-0.048431,-0.177171,0.009710
32.208421,-0.046368,-0.196350,-0.001057
32.218462,-0.020787,-0.198594,0.004344
32.228502,-0.000604,-0.218915,-0.003174
32.238512,-0.024008,-0.206049,0.002164
32.248552,-0.049434,-0.148283,-0.000838
32.258562,0.035680,-0.207331,0.006595
32.278612,-0.004724,-0.169802,0.002388
32.288652,-0.023819,-0.138785,0.005687
32.298692,-0.016402,-0.150521,-0.001826
32.308702,-0.035478,-0.116330,0.007897
32.318742,-0.003543,-0.124927,-0.002737
32.328752,-0.029074,-0.114225,0.010061
32.348802,-0.030082,-0.089629,0.003766
32.358843,0.011455,-0.096136,-0.003628
32.368883,-0.042766,-0.046835,-0.003544
32.378893,-0.024724,-0.077889,0.001700
32.388933,-0.007653,-0.060767,-0.017400
32.398943,-0.040621,-0.052268,0.014595
32.418993,-0.039554,-0.041506,-0.003510
32.429033,-0.050228,-0.044650,-0.008896
32.439073,-0.021408,-0.021183,-0.022592
32.449083,-0.043775,-0.029775,0.002943
32.459123,0.001995,-0.040507,-0.017278
32.469133,-0.015017,-0.026579,-0.015122
32.499223,0.007374,-0.036374,0.008394
32.509233,-0.007506,-0.005219,-0.020341
32.519273,0.010525,-0.037316,-0.020443
32.529314,-0.029879,-0.014869,0.003052
32.539324,0.005166,-0.044744,-0.026903
32.549364,-0.025637,-0.022354,0.001960
32.549364,-0.025637,-0.022354,0.001960
32.569414,-0.008591,-0.018082,-0.009723
32.579424,-0.011837,-0.038382,-0.005555
32.589464,0.036116,-0.032049,-0.022484
32.599504,-0.053239,0.002167,0.029773
32.609514,0.026482,-0.013575,-0.083312
32.629564,-0.049127,-0.013526,-0.041860
32.629564,-0.049127,-0.013526,-0.041860
32.649614,-0.070188,0.053600,0.005401
32.649614,-0.070188,0.053600,0.005401
32.669695,-0.007385,0.023483,0.007568
32.679704,-0.053174,0.053666,-0.020189
32.699754,-0.030780,0.051401,-0.008388
32.699754,-0.030780,0.051401,-0.008388
32.719804,-0.011574,0.066351,-0.021082
32.729845,-0.010512,0.055587,-0.004039
32.729845,-0.010512,0.055587,-0.004039
32.749895,0.002278,0.062009,-0.015724
32.759935,0.008728,0.069352,0.007830
32.769957,0.039640,0.080012,-0.009126
32.790007,0.021547,0.090760,-0.011261
32.790007,0.021547,0.090760,-0.011261
32.800047,0.036417,0.067177,-0.002786
32.810057,0.010863,0.083340,-0.015599
32.830138,-0.005074,0.098312,-0.009163
32.850188,0.000185,0.059738,0.014170
32.850188,0.000185,0.059738,0.014170
32.860197,-0.004165,0.053562,-0.031805
32.870238,0.016068,0.020158,0.017231
32.880247,-0.024341,0.071707,-0.015751
32.890288,0.036209,0.002124,-0.022322
32.900328,-0.025554,0.001080,0.014889
32.930388,-0.023472,-0.005233,-0.006499
32.930388,-0.023472,-0.005233,-0.006499
32.940428,0.055189,-0.074849,-0.018361
32.950438,-0.041625,-0.027687,0.011504
32.960478,0.017826,-0.089618,-0.031353
32.970518,-0.033142,-0.037270,-0.000268
33.000578,-0.041782,-0.076741,-0.003683
33.000578,-0.041782,-0.076741,-0.003683
33.010618,-0.012079,-0.114099,-0.028347
33.020628,-0.036494,-0.089553,-0.008002
33.030669,0.001831,-0.102467,-0.013298
33.040678,-0.009889,-0.099210,-0.016520
33.070769,0.030580,-0.101397,-0.033510
33.070769,0.030580,-0.101397,-0.033510
33.080809,0.016849,-0.079123,0.008218
33.090819,0.000825,-0.076798,-0.020657
33.100859,0.031739,-0.082304,-0.006711
33.110869,-0.030967,-0.027721,0.011534
33.140959,0.039341,-0.035380,0.002078
33.140959,0.039341,-0.035380,0.002078
33.150999,0.023411,-0.006423,-0.012784
33.161009,0.027685,-0.011857,0.004293
33.171049,0.035148,-0.008658,0.000056
33.181059,0.058649,0.018025,-0.012571
33.211149,0.026812,0.060785,0.000362
33.211149,0.026812,0.060785,0.000362
33.221190,0.030031,0.057475,0.020651
33.231200,0.076882,0.059615,-0.012324
33.241240,0.016284,0.102419,0.011212
33.251250,0.085404,0.059603,-0.015505
33.281340,0.056723,0.090631,-0.007960
33.281340,0.056723,0.090631,-0.007960
33.291380,-0.024163,0.134699,-0.012248
33.301390,0.020558,0.118530,-0.011133
33.311430,0.025828,0.098232,-0.013351
33.321440,-0.034878,0.112292,-0.009179
33.351530,-0.058275,0.133752,-0.014483
33.361571,0.002302,0.071625,-0.016746
33.371580,-0.007213,0.096188,-0.010247
33.381621,-0.021167,0.070694,-0.029634
33.391630,-0.005210,0.055656,-0.022184
33.421721,-0.021246,0.034319,-0.015920
33.421721,-0.021246,0.034319,-0.015920
33.431761,-0.006359,0.022528,-0.017002
33.441771,-0.006385,0.005376,-0.003197
33.451811,0.009526,-0.010594,-0.024593
33.461821,-0.038367,0.005505,-0.008626
33.481871,-0.009699,-0.033024,-0.010865
33.481871,-0.009699,-0.033024,-0.010865
33.491911,-0.025762,-0.054275,-0.022760
33.501921,-0.044960,-0.062786,-0.016444
33.511961,-0.004459,-0.060767,-0.019528
33.522002,0.005080,-0.090791,-0.000415
33.532011,-0.027938,-0.070287,-0.022842
33.562102,-0.023738,-0.097029,-0.016548
33.562102,-0.023738,-0.097029,-0.016548
33.572111,-0.015246,-0.113106,-0.010191
33.582152,-0.050372,-0.094822,-0.013406
33.592192,-0.023815,-0.121561,-0.023073
33.602202,-0.048211,-0.087384,-0.006956
33.622252,-0.035522,-0.119423,-0.015618
33.632292,-0.068542,-0.109684,-0.019936
33.642302,-0.037603,-0.099110,-0.018732
33.652342,-0.008859,-0.114180,-0.013383
33.662382,-0.026922,-0.098137,-0.005880
33.672392,-0.045071,-0.101217,-0.019831
33.692442,-0.032266,-0.098075,-0.015508
33.702482,0.001870,-0.084277,-0.020690
33.712492,-0.016240,-0.085322,-0.013267
33.722533,-0.027967,-0.082044,-0.020761
33.732573,-0.024743,-0.078907,-0.008987
33.742583,-0.020452,-0.069314,-0.007862
33.772717,-0.010919,-0.079928,-0.028182
33.772717,-0.010919,-0.079928,-0.028182
33.782727,-0.037475,-0.057501,-0.009990
33.792767,-0.004442,-0.058667,-0.012040
33.802777,0.007281,-0.050085,-0.027990
33.812817,-0.034238,-0.050097,0.002873
33.832867,-0.018210,-0.024428,-0.016189
33.842907,-0.010795,-0.048007,-0.003462
33.852917,-0.008592,-0.010535,-0.024642
33.862957,-0.012857,-0.024521,-0.000152
33.872967,-0.020311,-0.019132,-0.005488
33.883007,0.002060,-0.009477,-0.029949
33.913098,0.000088,0.029882,0.004414
33.923108,-0.006357,0.014982,-0.002083
33.933148,0.016035,0.029956,-0.022246
33.943158,0.001195,0.043751,0.006620
33.953198,0.042716,0.035144,-0.008261
33.983288,0.019372,0.072592,-0.007081
33.983288,0.019372,0.072592,-0.007081
33.993298,0.018364,0.079955,0.017520
34.003338,0.043902,0.090774,-0.029359
34.013348,0.023665,0.075716,0.006833
34.023388,-0.001819,0.113202,0.001599
34.043438,0.012050,0.119575,-0.000469
34.053479,0.047148,0.095997,-0.006893
34.063488,0.020553,0.111004,-0.000486
34.073529,0.008757,0.087573,-0.005971
34.083538,-0.033812,0.110133,-0.004914
34.093579,0.017296,0.096124,-0.013384
34.123669,-0.001921,0.085517,-0.015624
34.123669,-0.001921,0.085517,-0.015624
34.133679,-0.005153,0.071634,-0.013562
34.143719,-0.056339,0.058960,-0.008423
34.153729,-0.017994,0.058911,-0.024340
34.163769,-0.025399,0.064144,0.003438
34.183819,-0.060672,0.033344,-0.008556
34.193859,-0.030952,0.001315,-0.031058
34.203869,-0.049007,0.013025,-0.010756
34.213910,-0.040542,-0.007278,-0.014033
34.223919,-0.019287,-0.035159,-0.004492
34.233960,-0.039520,-0.023301,-0.014106
34.264050,-0.024742,-0.082141,-0.002593
34.264050,-0.024742,-0.082141,-0.002593
34.274060,-0.015135,-0.071447,-0.012130
