time_tick,gyr_X_value,gyr_Y_value,gyr_Z_value
0.015124,0.005269,-0.021371,-0.001155
0.025134,-0.086503,-0.061649,-0.002667
0.025134,-0.086503,-0.061649,-0.002667
0.035174,0.017025,-0.011818,0.003196
0.045184,-0.028863,-0.033027,0.002969
0.055224,0.007410,-0.020330,0.003129
0.065234,-0.026681,-0.013802,0.000929
0.075274,0.009534,-0.022468,0.002056
0.085284,-0.016055,-0.027739,0.005165
0.095324,-0.005386,-0.020268,-0.001179
0.105365,-0.018203,-0.025526,-0.009785
0.125415,-0.008594,-0.024535,-0.000140
0.125415,-0.008594,-0.024535,-0.000140
0.135424,-0.007518,-0.021339,0.000946
0.145465,-0.007527,-0.022387,-0.003331
0.155474,-0.003258,-0.020265,-0.003310
0.165515,-0.008587,-0.020248,-0.003324
0.175555,-0.009650,-0.024562,0.006266
0.185565,-0.006450,-0.021348,0.002018
0.195605,-0.010714,-0.020256,-0.000125
0.205615,-0.002180,-0.017075,-0.001155
0.225665,-0.011779,-0.023487,0.006266
0.235705,-0.004310,-0.017073,-0.000093
0.235705,-0.004310,-0.017073,-0.000093
0.245745,-0.010708,-0.019198,0.002016
0.255755,-0.002174,-0.016017,0.000986
0.265795,-0.010700,-0.018145,0.005226
0.275805,-0.016028,-0.015977,0.002017
0.285846,-0.006427,-0.012804,0.002058
0.295855,-0.003255,-0.020275,-0.001173
0.305896,0.004231,-0.010683,-0.002175
0.315905,-0.018180,-0.023446,0.001975
0.325946,-0.014962,-0.017059,0.004151
0.335986,-0.008554,-0.010657,0.000994
0.345996,-0.008581,-0.017034,-0.005445
0.356036,0.005277,-0.020318,0.002055
0.366046,-0.004308,-0.018156,0.003107
0.376086,-0.012835,-0.017050,0.000952
0.386096,-0.012840,-0.017035,-0.002253
0.396136,-0.001120,-0.020292,0.000969
0.406176,-0.005386,-0.022424,0.003084
0.416186,-0.008579,-0.020273,0.002017
0.426226,-0.013912,-0.021319,0.000929
0.436236,-0.006450,-0.020270,-0.000114
0.446276,-0.002190,-0.022430,0.002024
0.456286,-0.008591,-0.024545,0.001997
0.466326,-0.002186,-0.020289,0.000966
0.476367,-0.013917,-0.023460,0.001987
0.486377,-0.003258,-0.021343,-0.001178
0.496417,-0.010716,-0.023480,0.004132
0.506427,-0.008585,-0.022409,0.002007
0.516467,-0.006453,-0.021338,-0.000119
0.526477,-0.008597,-0.025603,-0.000145
0.536517,-0.000059,-0.021359,-0.000101
0.546527,-0.013924,-0.025590,0.000909
0.556567,-0.002181,-0.019226,0.002039
0.566607,-0.010725,-0.024528,-0.000146
0.576617,-0.002193,-0.022420,-0.000112
0.586657,-0.003259,-0.023494,0.002016
0.596667,-0.011785,-0.022388,-0.000138
0.606707,-0.004308,-0.017078,0.000976
0.616717,-0.012854,-0.023453,-0.000146
0.626757,-0.003255,-0.020275,-0.001173
0.636798,-0.010715,-0.021329,0.000938
0.646807,-0.008585,-0.021331,-0.000125
0.656848,-0.004316,-0.019209,-0.000103
0.666857,-0.008584,-0.020258,-0.001188
0.676898,-0.009648,-0.020259,-0.000123
0.686908,-0.007522,-0.022402,-0.000127
0.696948,-0.002183,-0.018143,-0.001160
0.706988,-0.010717,-0.021324,-0.000130
0.716998,-0.002186,-0.019211,-0.001165
0.727038,-0.010727,-0.025601,0.000917
0.737048,-0.004316,-0.019209,-0.000103
0.747088,-0.006453,-0.021338,-0.000119
0.757098,-0.007527,-0.023465,-0.001200
0.767138,-0.002190,-0.021352,-0.000107
0.777148,-0.010728,-0.025596,-0.000151
0.787188,-0.005380,-0.019210,0.000962
0.797229,-0.009660,-0.023453,-0.002274
0.807238,-0.008585,-0.021331,-0.000125
0.817279,-0.007518,-0.021339,0.000946
0.827288,-0.006453,-0.021338,-0.000119
0.837329,-0.007516,-0.020266,-0.000117
0.847338,-0.009644,-0.018119,-0.001181
0.857379,-0.002189,-0.021357,0.000961
0.867419,-0.009654,-0.022395,-0.000133
0.877429,-0.010715,-0.020251,-0.001194
0.897492,-0.006457,-0.021328,-0.002255
0.897492,-0.006457,-0.021328,-0.002255
0.907532,-0.006449,-0.020275,0.000954
0.917542,-0.009655,-0.022390,-0.001201
0.927582,-0.005386,-0.020268,-0.001179
0.937592,-0.011784,-0.021315,-0.001202
0.947632,-0.001121,-0.020287,-0.000099
0.957672,-0.010728,-0.025596,-0.000151
0.967682,-0.005385,-0.020273,-0.000111
0.977723,-0.006448,-0.019202,-0.000109
0.987732,-0.005391,-0.022409,-0.000121
0.997773,-0.006453,-0.021338,-0.000119
0.997773,-0.006453,-0.021338,-0.000119
1.017823,-0.004323,-0.021340,-0.001181
1.027863,-0.006461,-0.023469,-0.001197
1.037873,-0.001131,-0.022413,-0.002246
1.047913,-0.007522,-0.022402,-0.000127
1.057923,-0.010720,-0.021314,-0.002267
1.067963,-0.005385,-0.019195,-0.002242
1.077973,-0.009661,-0.023448,-0.003342
1.088013,-0.003253,-0.019202,-0.002236
1.098053,-0.011794,-0.024514,-0.002285
1.108063,-0.000051,-0.018150,-0.001154
1.118103,-0.013920,-0.022371,-0.002281
1.128113,-0.005387,-0.019190,-0.003310
1.138153,-0.013917,-0.022381,-0.000144
1.148163,-0.007530,-0.023455,-0.003336
1.158203,-0.008587,-0.020248,-0.003324
1.168213,-0.009656,-0.021312,-0.003332
1.178254,-0.005389,-0.020258,-0.003315
1.188294,-0.009661,-0.024526,-0.001211
1.198304,-0.007519,-0.020256,-0.002253
1.208344,-0.009651,-0.019171,-0.004390
1.218354,-0.007519,-0.020256,-0.002253
1.228394,-0.006455,-0.021333,-0.001187
1.238404,-0.008591,-0.022389,-0.002266
1.248444,-0.006446,-0.018129,-0.001172
1.258484,-0.009663,-0.024521,-0.002279
1.268494,-0.001123,-0.019204,-0.003299
1.278534,-0.007527,-0.023465,-0.001200
1.288544,-0.009652,-0.021322,-0.001196
1.298584,-0.003252,-0.018129,-0.003299
1.308594,-0.011791,-0.023446,-0.002280
1.318634,-0.005388,-0.020263,-0.002247
1.328675,-0.011788,-0.022378,-0.002275
1.338684,-0.003258,-0.020265,-0.003310
1.348725,-0.010715,-0.020251,-0.001194
1.358734,-0.003258,-0.021343,-0.001178
1.368775,-0.006456,-0.022406,-0.000124
1.378785,-0.009655,-0.022390,-0.001201
1.388825,-0.008579,-0.018117,-0.002246
1.398835,-0.010723,-0.021304,-0.004403
1.408875,-0.007521,-0.020251,-0.003321
1.418915,-0.005389,-0.021336,-0.001184
1.428925,-0.009651,-0.021327,-0.000128
1.438965,-0.005395,-0.022394,-0.003325
1.448975,-0.009653,-0.020244,-0.003327
1.459015,-0.005392,-0.021326,-0.003320
1.469025,-0.008599,-0.024519,-0.003344
1.479065,-0.002185,-0.018138,-0.002228
1.489106,-0.011784,-0.020237,-0.003333
1.499115,-0.008585,-0.020253,-0.002256
1.509156,-0.004324,-0.020262,-0.003312
1.519165,-0.007522,-0.021324,-0.002258
1.529206,-0.006451,-0.019192,-0.002245
1.539215,-0.006451,-0.018114,-0.004376
1.549256,-0.009656,-0.021312,-0.003332
1.559296,-0.006455,-0.020255,-0.003318
1.569306,-0.008582,-0.019185,-0.002251
1.579346,-0.012850,-0.020234,-0.003336
1.589356,-0.009657,-0.021307,-0.004400
1.599396,-0.007523,-0.020246,-0.004389
1.609406,-0.009660,-0.022375,-0.004405
1.619446,-0.009650,-0.019176,-0.003322
1.629456,-0.006457,-0.020250,-0.004386
1.639496,-0.010718,-0.020241,-0.003330
1.649536,-0.002195,-0.021336,-0.003312
1.659546,-0.005385,-0.019195,-0.002242
1.669587,-0.003257,-0.019192,-0.004373
1.679596,-0.007517,-0.018110,-0.004379
1.689637,-0.008588,-0.021321,-0.002261
1.699646,-0.007527,-0.022387,-0.003331
1.709687,-0.008575,-0.017054,-0.001173
1.719727,-0.003252,-0.018129,-0.003299
1.729737,-0.008588,-0.021321,-0.002261
1.739777,-0.002188,-0.019206,-0.002233
1.749787,-0.014981,-0.021305,-0.001210
1.759827,0.005296,-0.008530,-0.006435
1.769837,-0.011793,-0.023441,-0.003348
1.779877,-0.001107,-0.013869,-0.002205
1.789917,-0.020311,-0.020210,-0.003356
1.799927,0.006369,-0.006403,-0.005354
1.809967,-0.004318,-0.018126,-0.003302
1.819977,-0.009648,-0.019181,-0.002254
1.830017,-0.009629,-0.010623,-0.005418
1.840027,0.008494,-0.009619,-0.004295
1.850067,-0.008581,-0.018112,-0.003314
1.860077,-0.011767,-0.012752,-0.005434
1.870118,0.004238,-0.007474,-0.003228
1.880158,-0.011781,-0.019169,-0.003328
1.890186,-0.007499,-0.010625,-0.006480
1.900226,-0.003223,-0.007450,-0.003249
1.910236,-0.013907,-0.015949,-0.005455
1.920276,-0.002162,-0.007438,-0.006450
1.930286,-0.006423,-0.008507,-0.003263
1.940326,-0.010704,-0.013823,-0.005436
1.950366,-0.003222,-0.005299,-0.006443
1.960376,-0.001096,-0.008520,-0.004316
1.970416,-0.016033,-0.012728,-0.007582
1.980426,0.005336,0.005348,-0.005301
1.990466,-0.018162,-0.012731,-0.005451
2.000476,0.004256,0.002162,-0.008524
2.010516,-0.008544,-0.005302,-0.002185
2.020557,-0.006418,-0.003137,-0.009647
2.030566,0.000010,0.006433,-0.005311
2.040607,-0.014962,-0.010595,-0.007569
2.050617,0.006401,0.007500,-0.009561
2.060657,-0.013872,-0.004212,-0.003263
2.070667,0.001060,0.003246,-0.009596
2.080707,-0.011733,0.000068,-0.006441
2.090717,0.001072,0.007518,-0.009575
2.100757,-0.022397,-0.003111,-0.004349
2.110797,0.006408,0.010709,-0.010614
2.120807,-0.022409,-0.007383,-0.004370
2.130847,0.008527,0.005357,-0.009565
2.140857,-0.020286,-0.009515,-0.006510
2.150897,0.011749,0.012807,-0.006316
2.160907,-0.021371,-0.015914,-0.007612
2.170947,0.007468,0.007492,-0.008490
2.180988,-0.011760,-0.008465,-0.008618
2.190997,-0.018128,0.000089,-0.006459
2.201038,0.005312,-0.001040,-0.009604
2.211047,-0.020270,-0.003103,-0.007548
2.221088,0.007429,-0.006386,-0.009624
2.231097,-0.030937,-0.006272,-0.007593
2.241138,0.017037,0.001073,-0.012766
2.251178,-0.033098,-0.015866,-0.009780
2.261188,0.008500,-0.004254,-0.009611
2.271228,-0.028831,-0.013739,-0.010827
2.281238,0.013816,-0.007460,-0.012816
2.291278,-0.036301,-0.017992,-0.009799
2.301288,0.005273,-0.012767,-0.013933
2.311328,-0.014984,-0.018066,-0.008673
2.321338,-0.015008,-0.024453,-0.012976
2.331378,0.001007,-0.013821,-0.013949
2.341419,-0.015009,-0.026604,-0.009781
2.351428,-0.017139,-0.024446,-0.012982
2.361469,0.006322,-0.020256,-0.011829
2.371478,-0.019281,-0.028716,-0.011939
2.381519,-0.002218,-0.025573,-0.010809
2.391528,0.000989,-0.020228,-0.013980
2.401569,-0.021430,-0.035117,-0.011976
2.411609,0.008468,-0.016001,-0.009666
2.421619,-0.021414,-0.028704,-0.013014
2.431659,0.015915,-0.018136,-0.014997
2.441669,-0.016085,-0.030877,-0.008736
2.451709,0.011653,-0.017049,-0.016072
2.461719,-0.010746,-0.025540,-0.011901
2.471759,0.013801,-0.013877,-0.010710
2.481769,-0.023548,-0.027614,-0.016219
2.491809,0.020221,-0.003204,-0.013846
2.501849,-0.037401,-0.029730,-0.010926
2.511859,0.029808,-0.003220,-0.017024
2.521899,-0.032039,-0.019078,-0.008725
2.531909,0.025541,-0.005347,-0.015978
2.541950,-0.027782,-0.021228,-0.008723
2.551959,0.034079,-0.002181,-0.013803
2.562000,-0.039511,-0.021175,-0.011960
2.572040,0.044749,0.000978,-0.011622
2.582050,-0.039502,-0.016893,-0.014076
2.592090,0.027707,0.003154,-0.008454
2.602100,-0.013925,-0.015893,-0.017205
2.612140,-0.003203,0.003260,-0.009607
2.622150,-0.001097,-0.003129,-0.014973
2.632190,-0.008575,-0.010591,-0.012892
2.642230,0.021300,-0.000019,-0.010623
2.652240,-0.022452,-0.019094,-0.011903
2.662280,0.026648,0.006367,-0.009510
2.672290,-0.013905,-0.011647,-0.011844
2.682330,-0.004283,0.001153,-0.014961
2.692340,0.020224,-0.005370,-0.007447
2.702380,-0.014976,-0.011628,-0.015051
2.712390,0.012793,0.004255,-0.005286
2.722430,-0.007526,-0.018080,-0.010788
2.732471,0.010653,0.005366,-0.012764
2.742481,-0.001086,-0.001009,-0.011758
2.752521,-0.000035,-0.006352,-0.011780
2.762531,0.003214,0.011787,-0.010617
2.772571,-0.011756,-0.006324,-0.009676
2.782581,0.025558,-0.000017,-0.013816
2.792621,-0.008521,0.004320,-0.004276
2.802661,-0.022400,0.004441,-0.020337
2.812671,0.033049,0.007404,-0.007351
2.822711,-0.026671,-0.004140,-0.009707
2.832721,-0.002102,0.014993,-0.007412
2.842761,0.011706,0.001096,-0.013849
2.852771,-0.026664,-0.002009,-0.008629
2.862811,0.015987,0.007489,-0.013807
2.872852,0.018053,-0.017085,-0.012849
2.882861,-0.001106,-0.010640,-0.007531
2.892922,-0.011711,0.007539,-0.005338
2.902931,-0.025600,0.002305,-0.018219
2.912972,-0.024483,0.019373,-0.014931
2.922981,-0.014961,-0.008444,-0.010763
2.933022,-0.019246,-0.022364,-0.000159
2.943032,0.016009,0.016038,-0.014835
2.953072,-0.037403,-0.028647,-0.014126
2.963112,0.007458,-0.003248,0.004278
2.973122,-0.014990,-0.010504,-0.026796
2.973122,-0.014990,-0.010504,-0.026796
2.993172,0.014883,-0.006390,-0.013876
3.003212,-0.031981,-0.008490,0.010554
3.013222,-0.010710,-0.009496,-0.017166
3.023262,-0.013883,-0.004176,-0.010740
3.033303,-0.032040,-0.022307,-0.003399
3.043312,-0.020326,-0.018008,-0.017233
3.043312,-0.020326,-0.018008,-0.017233
3.063362,-0.049149,-0.035001,-0.017393
3.073403,0.015934,-0.017119,-0.004310
3.073403,0.015934,-0.017119,-0.004310
3.093453,-0.010729,-0.016976,-0.016133
3.103493,-0.015003,-0.025546,-0.007640
3.123543,-0.020304,-0.014845,-0.008672
3.133553,-0.022448,-0.016953,-0.012961
3.133553,-0.022448,-0.016953,-0.012961
3.143593,0.011652,-0.021356,-0.008615
3.163643,-0.008544,0.001161,-0.013905
3.163643,-0.008544,0.001161,-0.013905
3.173653,0.017017,-0.009636,-0.006408
3.193733,0.008497,-0.003166,-0.013878
3.203743,0.004280,0.010706,-0.008483
3.213783,-0.030994,-0.025479,-0.010888
3.223793,0.012739,-0.013884,-0.008576
3.233834,0.007439,-0.004266,-0.006409
3.243843,-0.035236,-0.016917,-0.011928
3.273934,0.003158,-0.013888,-0.001125
3.273934,0.003158,-0.013888,-0.001125
3.283974,-0.014953,-0.002006,-0.017142
3.293984,-0.011791,-0.019139,-0.009737
3.304024,0.004190,-0.027790,0.002017
3.314034,-0.000025,-0.002075,-0.012828
3.344124,0.031911,-0.016062,-0.012806
3.344124,0.031911,-0.016062,-0.012806
3.354164,-0.023501,-0.024532,0.009433
3.364174,-0.000042,-0.010639,-0.008596
3.374214,0.014887,-0.017176,0.008506
3.384224,-0.034181,-0.024426,-0.005551
3.404274,-0.024574,-0.030966,0.015809
3.404274,-0.024574,-0.030966,0.015809
3.414314,-0.018169,-0.009477,-0.016118
3.424355,0.039454,0.004118,0.005470
3.434365,-0.037412,-0.037236,-0.004552
3.444405,0.027683,-0.009696,-0.001038
3.454415,-0.030945,-0.011632,-0.003345
3.484505,-0.014983,-0.015915,-0.011867
3.484505,-0.014983,-0.015915,-0.011867
3.494545,-0.000008,-0.006438,0.006379
3.504555,-0.007515,-0.013808,-0.010768
3.514595,0.012756,-0.012862,0.001043
3.524605,-0.017119,-0.021278,-0.005489
3.554695,-0.019233,-0.009478,-0.015053
3.554695,-0.019233,-0.009478,-0.015053
3.564705,0.001067,0.001070,-0.001060
3.574745,-0.001128,-0.019189,-0.006503
3.584786,0.008466,-0.019225,-0.005409
3.594795,0.008493,-0.007463,-0.008558
3.614845,-0.017111,-0.014840,-0.011868
3.614845,-0.017111,-0.014840,-0.011868
3.624886,-0.001105,-0.009567,-0.008594
3.634896,-0.018201,-0.023380,-0.011911
3.644936,-0.010749,-0.026608,-0.011906
3.654976,-0.006453,-0.022416,0.002013
3.664986,-0.037399,-0.024350,-0.019446
3.695076,0.011645,-0.022409,-0.011824
3.695076,0.011645,-0.022409,-0.011824
3.705086,-0.006512,-0.040540,-0.004483
3.715126,-0.015032,-0.035148,-0.009822
3.725167,-0.007550,-0.032009,-0.001241
3.735176,-0.021432,-0.041575,-0.001324
3.755226,0.011614,-0.041702,0.003039
3.755226,0.011614,-0.041702,0.003039
3.765267,-0.016177,-0.062900,-0.012093
3.775276,0.023372,-0.032154,0.008458
3.785317,-0.033214,-0.065051,0.002805
3.795326,-0.011837,-0.040538,-0.001293
3.805367,-0.017150,-0.039493,0.007243
3.835457,-0.010782,-0.048047,0.005084
3.835457,-0.010782,-0.048047,0.005084
3.845467,-0.001204,-0.055574,0.009348
3.855507,-0.000116,-0.049185,0.012586
3.865517,-0.011842,-0.051293,0.014680
3.875557,0.010590,-0.039674,0.026547
3.895635,0.013808,-0.026824,0.017003
3.895635,0.013808,-0.026824,0.017003
3.905675,0.029745,-0.051494,0.028680
3.915685,-0.021433,-0.051267,0.015721
3.925726,0.037257,-0.032291,0.027724
3.935735,-0.010811,-0.066268,0.018884
3.945776,0.016984,-0.037539,0.022302
3.975866,-0.002146,-0.026878,0.039391
3.975866,-0.002146,-0.026878,0.039391
3.985876,-0.008588,-0.039632,0.030767
3.995916,-0.001085,-0.037637,0.055366
4.005926,0.009544,-0.037581,0.036168
4.015966,0.028737,-0.038746,0.043693
4.036016,0.039406,-0.033431,0.041611
4.046056,-0.006449,-0.046128,0.047834
4.056066,-0.001127,-0.041813,0.035050
4.066106,0.031976,-0.029196,0.054429
4.076116,-0.040592,-0.056671,0.042348
4.086156,0.038404,-0.018548,0.056634
4.116247,0.026697,-0.015331,0.061958
4.116247,0.026697,-0.015331,0.061958
4.126257,-0.010702,-0.046144,0.054231
4.136297,0.016035,-0.007745,0.045941
4.146307,0.006429,-0.016288,0.052283
4.156347,-0.023499,-0.043926,0.045660
4.176397,-0.026637,-0.025792,0.052147
4.186407,0.023477,-0.020635,0.056583
4.196447,-0.017079,-0.034331,0.044655
4.206487,0.045882,-0.007857,0.049227
4.216497,-0.038391,-0.039662,0.057390
4.226537,-0.045939,-0.032896,-0.013101
4.246587,-0.113077,-0.063941,0.048523
4.256597,0.021335,-0.000130,0.012877
4.266637,0.029956,-0.002612,0.080186
4.276678,-0.092875,-0.061699,0.012270
4.286687,0.064056,0.006989,0.058962
4.296728,-0.079992,-0.041572,0.038038
4.326788,-0.044830,-0.034114,0.017874
4.326788,-0.044830,-0.034114,0.017874
4.336828,-0.051177,-0.022397,0.028594
4.346868,-0.047987,-0.022382,0.023262
4.356878,-0.014944,-0.022499,0.025489
4.366918,-0.042686,-0.043854,0.043471
4.386968,0.001015,-0.034314,0.028682
4.386968,0.001015,-0.034314,0.028682
4.396978,-0.080052,-0.055384,0.023017
4.407018,-0.011816,-0.039526,0.010462
4.417028,-0.035266,-0.049137,0.026375
4.427068,-0.022509,-0.060926,0.026355
4.437109,-0.003296,-0.052460,0.029653
4.457159,0.000950,-0.063193,0.038159
4.467168,0.055360,-0.043074,0.037337
4.477209,-0.048139,-0.081148,0.029393
4.487218,0.063758,-0.034078,-0.064078
4.497259,0.030950,-0.047631,0.114159
4.507299,-0.160237,-0.101728,-0.058608
4.527349,-0.043823,-0.072710,0.048673
4.527349,-0.043823,-0.072710,0.048673
4.537359,0.008340,-0.033908,-0.062094
4.547399,0.060822,-0.019815,0.083395
4.557409,-0.154702,-0.062541,0.006754
4.567449,0.120577,0.032553,0.034670
4.577489,-0.094895,-0.043735,0.054010
4.597540,0.024635,0.013540,0.055679
4.607549,-0.090601,-0.016914,0.025307
4.617590,0.068389,0.056308,0.015410
4.627599,-0.041442,0.021286,0.043783
4.637640,0.036405,0.056442,0.008913
4.647649,-0.036039,0.046889,0.046055
4.677740,0.014127,0.063727,0.064433
4.677740,0.014127,0.063727,0.064433
4.687780,-0.029656,0.068449,-0.000826
4.697790,0.024737,0.091853,-0.018725
4.707830,-0.043395,0.078895,0.057937
4.717840,-0.075386,0.097367,0.013071
4.737920,-0.047664,0.098319,0.018493
4.747930,-0.016741,0.114329,-0.000574
4.757970,-0.045455,0.121766,0.027156
4.767980,-0.132931,0.105069,0.004402
4.778020,0.017499,0.159035,0.007210
4.788030,-0.096647,0.114497,0.018434
4.808080,-0.050765,0.126030,0.032502
4.818121,-0.049749,0.133725,-0.014460
4.828161,-0.020881,0.147347,0.020935
4.838171,-0.104178,0.081350,0.032143
4.848211,-0.041208,0.128266,0.004766
4.858221,-0.077517,0.087676,0.031179
4.878271,-0.011424,0.099269,0.018598
4.888311,-0.076528,0.065297,0.020393
4.898371,-0.038158,0.070552,0.011979
4.908381,-0.032880,0.047000,0.020428
4.918421,-0.080847,0.039635,0.029874
4.928431,-0.019092,0.035319,-0.003090
4.948481,-0.083087,0.006592,0.017961
4.958521,-0.024466,0.008547,0.015996
4.968562,-0.071399,-0.013803,0.031784
4.978571,-0.038396,-0.018101,0.014763
4.988612,-0.037370,-0.031982,0.013632
4.998622,-0.001096,-0.025753,0.026580
5.018672,-0.022468,-0.045975,0.026426
5.028712,-0.047033,-0.056503,0.011353
5.038722,-0.044910,-0.071563,0.032652
5.048762,-0.018303,-0.068299,0.001763
5.058802,-0.053472,-0.088657,0.040025
5.068812,-0.000224,-0.082235,0.000679
5.078852,0.022168,-0.086651,0.015675
5.088862,-0.069534,-0.110991,0.031329
5.098902,-0.009818,-0.081121,-0.002547
5.108912,-0.041756,-0.090826,0.038979
5.118952,-0.075959,-0.107640,0.004622
5.128993,0.034940,-0.090944,0.011417
5.139002,-0.041849,-0.114229,0.019640
5.159052,0.005149,-0.084546,0.033797
5.159052,0.005149,-0.084546,0.033797
5.169093,-0.039640,-0.092938,0.032565
5.179102,-0.022604,-0.095094,0.025125
5.189143,0.026445,-0.081320,0.014643
5.199183,0.000851,-0.094118,0.028399
5.209193,0.005175,-0.069549,0.024254
5.239283,0.004130,-0.060992,0.022155
5.239283,0.004130,-0.060992,0.022155
5.249293,0.026511,-0.059987,0.020086
5.259333,-0.032118,-0.068380,0.028430
5.269343,0.002094,-0.027894,0.025511
5.279383,-0.021442,-0.064163,0.032752
5.299433,0.022323,-0.039743,0.032988
5.309474,-0.045958,-0.052225,0.009240
5.319483,0.022316,-0.030025,0.010602
5.329524,-0.065071,-0.051312,0.055125
5.339533,0.036120,-0.044991,0.004160
5.349574,-0.004353,-0.043867,0.020077
5.379664,-0.001104,-0.031113,0.030828
5.379664,-0.001104,-0.031113,0.030828
5.389674,-0.043787,-0.040510,0.014642
5.399714,0.015932,-0.023577,0.006342
5.409724,-0.041601,-0.034226,0.039247
5.419764,-0.023498,-0.026693,0.014764
5.439814,-0.023499,-0.029922,0.020090
5.449854,-0.038423,-0.025556,0.010455
5.459864,-0.041559,-0.009583,0.022272
5.469904,-0.030945,-0.020251,0.012637
5.479914,-0.021354,-0.026740,0.023315
5.489955,-0.017064,-0.017143,0.023372
5.510005,-0.013896,-0.028910,0.025462
5.520045,-0.005354,-0.020369,0.020185
5.530055,-0.014966,-0.031048,0.026517
5.540095,0.015998,-0.013014,0.030961
5.550105,-0.001137,-0.036397,0.019053
5.560145,0.011688,-0.027931,0.026606
5.580195,-0.000030,-0.026835,0.028715
5.590235,-0.023509,-0.036355,0.025400
5.600245,0.001020,-0.028944,0.022298
5.610285,-0.042735,-0.052316,0.026340
5.620295,-0.017112,-0.032074,0.019029
5.630335,-0.028832,-0.033124,0.023264
5.650385,0.011657,-0.033220,0.015898
5.650385,0.011657,-0.033220,0.015898
5.660395,-0.026750,-0.046978,0.015727
5.670435,-0.020340,-0.038430,0.010444
5.680476,-0.044853,-0.042658,0.017834
5.690486,-0.029935,-0.037311,0.006150
5.700526,0.012721,-0.034296,0.016964
5.720576,0.003113,-0.038522,0.013713
5.720576,0.003113,-0.038522,0.013713
5.730586,-0.022465,-0.037365,0.012580
5.740626,-0.007508,-0.026755,0.016944
5.750666,-0.024576,-0.028805,0.010478
5.760676,-0.012845,-0.027790,0.013720
5.770716,-0.018193,-0.033097,0.010475
5.790766,-0.018170,-0.029939,0.020104
5.800776,-0.008602,-0.036358,0.015827
5.810816,-0.004309,-0.028926,0.022284
5.820826,-0.006436,-0.028935,0.025482
5.830866,0.004189,-0.036404,0.016931
5.840907,0.012751,-0.026851,0.023409
5.860957,0.012727,-0.036467,0.024432
5.870966,0.004195,-0.035347,0.019072
5.881007,-0.019283,-0.048101,0.022152
5.891017,-0.006477,-0.040652,0.019018
5.901066,-0.004358,-0.042774,0.014741
5.911106,0.003083,-0.049201,0.013663
5.931156,0.009490,-0.046028,0.015832
5.931156,0.009490,-0.046028,0.015832
5.941166,-0.000081,-0.041755,0.022235
5.951206,0.002007,-0.044855,-0.001275
5.961216,0.008383,-0.038352,-0.025795
5.971256,0.001941,-0.037106,-0.058922
5.981297,0.009428,-0.044753,-0.027959
6.001347,-0.000164,-0.046877,-0.023723
6.011356,0.013666,-0.036071,-0.059953
6.021397,0.017806,-0.045388,-0.125146
6.031406,0.022158,-0.038144,-0.079167
6.041447,0.016787,-0.034761,-0.113349
6.051456,-0.003520,-0.032362,-0.155054
6.071537,-0.022753,-0.028913,-0.193546
6.081547,-0.029147,0.002345,-0.250031
6.091587,-0.094106,-0.019161,-0.174470
6.101597,-0.046191,-0.015941,-0.210641
6.111637,-0.055691,-0.019433,-0.143386
6.121647,-0.071784,-0.005042,-0.239502
6.131687,-0.031281,-0.010569,-0.227666
6.141727,-0.017426,-0.013843,-0.222302
6.151737,-0.018437,-0.018324,-0.177461
6.161777,-0.022678,-0.016225,-0.166781
6.171787,-0.027953,-0.008838,-0.144328
6.181828,-0.026899,-0.018499,-0.134757
6.191837,-0.050360,-0.008685,-0.161481
6.211918,-0.031072,-0.039236,-0.037659
6.221928,-0.030981,-0.027676,0.001920
6.231968,-0.038460,-0.031903,-0.002394
6.241978,-0.043867,-0.040257,-0.038767
6.252018,-0.016056,-0.028812,0.006229
6.262028,-0.032086,-0.044785,0.007177
6.282078,-0.032101,-0.047968,0.002889
6.292118,0.048715,-0.090736,-0.041955
6.302158,-0.103774,-0.018892,-0.224701
6.312168,-0.196611,-0.078557,-0.191057
6.322208,0.103180,0.008921,-0.150291
6.332218,-0.029228,-0.073882,-0.164935
6.342258,-0.055769,-0.039652,-0.158437
6.352268,-0.031385,-0.067331,-0.193752
6.362308,-0.002519,-0.068786,-0.131723
6.372349,-0.009928,-0.062460,-0.109281
6.382359,-0.009894,-0.046411,-0.115614
6.392399,-0.014184,-0.051696,-0.124197
6.402409,-0.006752,-0.065634,-0.117833
6.422459,-0.014071,-0.043436,-0.064337
6.432499,-0.009719,-0.042656,-0.006638
6.442509,-0.009728,-0.052323,0.005067
6.452549,-0.009695,-0.036268,-0.002335
6.462589,-0.042859,-0.035766,-0.085745
6.472599,-0.034162,-0.023409,0.005136
6.492649,-0.033024,0.008676,-0.005391
6.502689,-0.008635,-0.039486,-0.000211
6.512699,0.002092,-0.021426,0.012723
6.522739,0.000088,0.030960,0.002283
6.532780,0.010633,-0.008573,-0.001079
6.542789,0.029854,-0.013059,0.030999
6.562839,-0.007420,0.009590,0.009639
6.572880,-0.009540,0.022488,-0.006329
6.582890,-0.018037,0.026732,0.005418
6.582890,-0.018037,0.026732,0.005418
6.602970,-0.013755,0.035276,0.002265
6.612980,-0.015897,0.028851,0.007570
6.623020,-0.016962,0.032083,0.002241
6.633030,-0.008380,0.049117,0.007687
6.643070,-0.014824,0.034212,0.002257
6.653080,-0.009456,0.048073,0.003406
6.663120,-0.015843,0.051302,0.002335
6.673130,-0.021241,0.027840,-0.000995
6.683170,-0.016914,0.051321,-0.000872
6.693211,-0.024374,0.050267,0.001239
6.703220,-0.023353,0.036401,-0.003097
6.713261,-0.025478,0.041773,-0.008419
6.723270,-0.028660,0.040660,0.003318
6.733311,-0.029737,0.039620,-0.002031
6.743320,-0.036135,0.040729,-0.006316
6.753361,-0.038308,0.025785,-0.006393
6.763401,-0.039350,0.032176,-0.002093
6.763401,-0.039350,0.032176,-0.002093
6.783451,-0.038316,0.021503,-0.004277
6.793461,-0.036178,0.024705,-0.005324
6.803501,-0.034095,0.004388,-0.001142
6.803501,-0.034095,0.004388,-0.001142
6.823551,-0.039486,-0.016944,-0.003394
6.843601,-0.042688,-0.017996,-0.004476
6.853642,-0.037401,-0.037271,0.002925
6.863651,-0.029920,-0.027664,-0.001282
6.873692,-0.033155,-0.043693,0.002906
6.873692,-0.033155,-0.043693,0.002906
6.893742,-0.025740,-0.059731,0.001783
6.913815,-0.010837,-0.068338,0.004988
6.913815,-0.010837,-0.068338,0.004988
6.933866,0.010440,-0.085519,0.010306
6.933866,0.010440,-0.085519,0.010306
6.943905,0.011514,-0.083397,0.012456
6.953915,0.017874,-0.097311,0.014544
6.963956,0.015747,-0.095163,0.013480
6.994045,0.008272,-0.099401,0.011303
6.994045,0.008272,-0.099401,0.011303
7.004056,0.008272,-0.099401,0.011303
7.014095,0.008266,-0.101536,0.011293
7.024105,0.008248,-0.107944,0.011263
7.034146,0.010439,-0.088749,0.015632
7.064205,0.017865,-0.099437,0.012398
7.064205,0.017865,-0.099437,0.012398
7.074247,0.018972,-0.085567,0.014603
7.084287,0.020021,-0.091978,0.014575
7.094296,0.025380,-0.078087,0.009315
7.104337,0.026438,-0.085607,0.017828
7.134396,0.030760,-0.059955,0.010484
7.134396,0.030760,-0.059955,0.010484
7.144437,0.027580,-0.054615,0.012636
7.154476,0.023344,-0.044990,0.012670
7.164486,0.018015,-0.041743,0.007330
7.174527,0.018039,-0.033200,0.007370
7.194576,0.011692,-0.018249,0.011696
7.194576,0.011692,-0.018249,0.011696
7.204586,0.003159,-0.018201,0.007400
7.214627,0.004209,-0.021388,0.003115
7.224668,0.003201,-0.001099,0.004277
7.234676,-0.001102,-0.014963,0.003131
7.244717,-0.003200,-0.002136,0.002117
7.264767,-0.009581,0.005381,-0.002137
7.264767,-0.009581,0.005381,-0.002137
7.274777,-0.015955,0.012877,-0.002120
7.284818,-0.019170,0.005402,-0.000027
7.294828,-0.023461,-0.003112,-0.003284
7.304867,-0.024476,0.011812,0.003193
7.314907,-0.022328,0.020368,-0.001034
7.334957,-0.018082,0.013947,-0.001052
7.334957,-0.018082,0.013947,-0.001052
7.344967,-0.013787,0.022451,0.004341
7.355008,-0.020213,0.012876,0.001073
7.365018,-0.012736,0.021415,-0.003139
7.375057,-0.006319,0.023480,0.007571
7.385098,-0.020243,0.002197,0.001023
7.415157,-0.017009,0.014996,0.002160
7.415157,-0.017009,0.014996,0.002160
7.425199,-0.019153,0.008580,0.005329
7.435208,-0.025588,-0.003121,-0.000085
7.445248,-0.019177,0.003271,-0.001106
7.455258,-0.035158,0.003303,0.003123
7.465299,-0.028791,-0.006324,0.002027
7.475338,-0.017068,-0.004206,-0.002203
7.485348,-0.019196,-0.005287,0.002058
7.495389,-0.012808,-0.007439,0.000998
7.505399,-0.013876,-0.008509,0.002058
7.515438,-0.012839,-0.018113,-0.000121
7.525448,-0.009632,-0.014925,0.000971
7.545529,0.002101,-0.012837,0.003150
7.545529,0.002101,-0.012837,0.003150
7.555538,0.006340,-0.024624,0.008447
7.565580,0.000984,-0.030983,0.001993
7.575589,0.004181,-0.034223,0.007327
7.585629,0.011662,-0.027850,0.009514
7.595638,0.006318,-0.029938,0.003080
7.615719,0.012708,-0.032100,0.004156
7.625729,-0.000102,-0.040612,0.006217
7.635770,0.002027,-0.041686,0.006218
7.645780,-0.004365,-0.040598,0.006205
7.655819,-0.006512,-0.048082,0.009368
7.665829,-0.001176,-0.043812,0.006199
7.685880,-0.000120,-0.045941,0.004055
7.695919,-0.003317,-0.047009,0.006178
7.705960,-0.000129,-0.048067,0.001909
7.715970,-0.009758,-0.058690,-0.003509
7.726009,-0.013991,-0.052309,0.005055
7.736019,-0.011847,-0.043737,-0.002376
7.766110,-0.013993,-0.051226,0.001855
7.766110,-0.013993,-0.051226,0.001855
7.776150,-0.016184,-0.068265,-0.006777
7.786161,-0.016178,-0.067207,-0.004635
7.796200,-0.026795,-0.052222,-0.004594
7.806210,-0.028979,-0.072515,-0.002560
7.826261,-0.024671,-0.053281,-0.007798
7.836300,-0.026833,-0.067183,-0.002528
7.846310,-0.025750,-0.059701,-0.004626
7.856351,-0.026840,-0.069314,-0.003607
7.866390,-0.032137,-0.055393,-0.007828
7.876400,-0.026796,-0.053295,-0.003531
7.896466,-0.027872,-0.057568,-0.002486
7.906506,-0.028912,-0.047953,-0.002443
7.916516,-0.027846,-0.046879,-0.004572
7.926556,-0.023603,-0.055446,-0.002464
7.936597,-0.025719,-0.049026,-0.003508
7.946607,-0.023592,-0.053325,0.000751
7.966657,-0.017188,-0.047991,-0.002411
7.976697,-0.015051,-0.049091,0.002931
7.986707,-0.003295,-0.037382,0.003019
7.996747,-0.003346,-0.057688,0.006127
8.006757,-0.000089,-0.035267,0.005174
8.016797,0.000967,-0.039547,0.006225
8.036847,0.003107,-0.036350,0.006246
8.046887,-0.002223,-0.036328,0.005163
8.056897,0.003076,-0.045946,0.002996
8.066937,-0.008653,-0.048044,0.002953
8.076947,-0.006491,-0.038455,0.006209
8.086987,-0.010773,-0.043766,0.002968
8.107037,-0.008665,-0.052316,0.002933
8.117078,-0.002207,-0.030993,0.006257
8.127087,0.002027,-0.043843,0.010480
8.137128,0.005212,-0.044891,0.004075
8.147138,0.012710,-0.034261,0.009487
8.157178,0.011635,-0.035305,0.005206
8.177228,0.014836,-0.036404,0.009483
8.177228,0.014836,-0.036404,0.009483
8.187268,0.008450,-0.033179,0.009480
8.197278,0.009511,-0.034245,0.008410
8.207318,0.004203,-0.027831,0.010562
8.217328,0.004188,-0.033170,0.010537
8.227368,0.006352,-0.020352,0.008467
8.247418,0.003160,-0.017128,0.006337
8.257459,0.002089,-0.021416,0.010587
8.267468,-0.002149,-0.008557,0.004226
8.277509,0.004219,-0.021418,0.009524
8.287518,0.009599,-0.003286,0.010693
8.297559,0.006389,-0.007542,0.009596
8.317609,0.003182,-0.008579,0.005309
8.327649,0.006389,-0.008620,0.011727
8.337659,0.006436,0.009545,0.009677
8.347699,-0.006407,-0.007480,0.005288
8.357709,-0.008539,-0.007473,0.005282
8.367749,-0.009551,0.013904,0.002176
8.377759,-0.023468,-0.009555,0.004163
8.387799,-0.017050,-0.003184,0.007415
8.397809,-0.019167,0.005392,0.002109
8.407849,-0.027698,0.002206,0.004207
8.417889,-0.019136,0.016066,0.003228
8.427899,-0.025563,0.004340,0.003155
8.437940,-0.027688,0.005404,0.005290
8.457990,-0.019141,0.013930,0.003218
8.467999,-0.018071,0.016068,0.002162
8.478040,-0.024470,0.010713,0.009597
8.488080,-0.021285,0.005358,0.010649
8.498090,-0.015945,0.012847,0.004290
8.508130,-0.018070,0.014985,0.005362
8.528180,-0.025520,0.019286,0.004294
8.538190,-0.024469,0.012864,0.006403
8.548230,-0.030876,0.006462,0.009559
8.558270,-0.020226,0.004297,0.008510
8.568280,-0.018052,0.022470,0.003261
8.578320,-0.020211,0.008559,0.010667
8.588330,-0.020230,0.007541,-0.000020
8.598370,-0.013830,0.005349,0.007465
8.608380,-0.028771,-0.002078,0.007388
8.618420,-0.023396,0.012841,0.010678
8.628430,-0.015989,-0.006406,0.010608
8.638471,-0.018128,-0.008530,0.009523
8.648511,-0.014935,-0.008525,0.006328
8.658521,-0.011693,0.004249,0.012806
8.668561,-0.007496,-0.018176,0.009507
8.678571,-0.010684,-0.011733,0.004188
8.688611,-0.007478,-0.015003,0.015932
8.698621,-0.001101,-0.018197,0.009525
8.708661,-0.009635,-0.020300,0.008423
8.718701,-0.009622,-0.016033,0.009511
8.738751,-0.012856,-0.028833,0.008374
8.748761,-0.009636,-0.021373,0.009486
8.758801,-0.009661,-0.033145,0.014771
8.768811,-0.008579,-0.026736,0.013737
8.778851,-0.006499,-0.041659,0.006194
8.788861,-0.006452,-0.025650,0.008407
8.808942,-0.006457,-0.027791,0.009465
8.818951,-0.008644,-0.045918,0.005100
8.828992,-0.004345,-0.035273,0.009435
8.839002,-0.007576,-0.044854,0.005108
8.849042,-0.000120,-0.045941,0.004055
8.859052,-0.004363,-0.041681,0.009405
8.879132,-0.009729,-0.048010,-0.003459
8.879132,-0.009729,-0.048010,-0.003459
8.889142,-0.003286,-0.035257,0.005165
8.899230,-0.001206,-0.053413,0.004017
8.909240,-0.003303,-0.038435,-0.000191
8.919280,0.000961,-0.040605,0.004083
8.929290,0.000940,-0.045924,-0.000215
8.949371,-0.010745,-0.030930,-0.001244
8.959380,-0.012948,-0.057627,-0.000308
8.969421,-0.023530,-0.028748,-0.002337
8.979430,-0.021387,-0.027712,0.003014
8.989471,-0.021425,-0.038366,-0.002377
8.999480,-0.017145,-0.034123,0.000859
9.019531,-0.019278,-0.035189,0.001917
9.029571,-0.027780,-0.022311,-0.005523
9.039611,-0.025645,-0.022328,-0.003381
9.049621,-0.034164,-0.020170,-0.002326
9.059661,-0.029877,-0.012718,-0.000143
9.069671,-0.014975,-0.015940,-0.006526
9.089721,-0.016069,-0.030928,0.001946
9.089721,-0.016069,-0.030928,0.001946
9.099761,-0.011724,0.000038,-0.000032
9.109801,-0.010723,-0.021304,-0.004403
9.119811,-0.020299,-0.017016,-0.001205
9.129852,-0.013864,-0.004237,0.002078
9.139861,-0.013926,-0.025585,-0.000160
9.159911,-0.017111,-0.023459,0.004115
9.169952,-0.010697,-0.017078,0.005231
9.179961,-0.009657,-0.022385,-0.002269
9.190002,-0.011771,-0.015971,-0.002245
9.200042,-0.005375,-0.019226,0.004167
9.210052,-0.019212,-0.011700,0.003096
9.230102,-0.004314,-0.020292,0.003097
9.240142,-0.017095,-0.017047,0.003077
9.250152,0.005324,-0.007543,0.010661
9.260192,-0.018158,-0.015975,0.003079
9.270232,-0.004281,-0.010701,0.007415
9.280242,0.004242,-0.010718,0.005302
9.300292,0.013861,-0.002216,0.007505
9.310333,0.004267,-0.004336,0.010673
9.320342,0.026630,-0.009733,0.007505
9.330383,0.012783,-0.005406,0.005351
9.340392,0.001078,-0.002195,0.011743
9.350433,0.015973,-0.007548,0.004281
9.370483,-0.023487,-0.015958,0.003064
9.380523,-0.002143,-0.007499,0.006368
9.390533,-0.004283,-0.008540,0.002084
9.400573,-0.009583,0.001079,0.004251
9.410583,-0.029874,-0.014884,0.006256
9.420623,-0.018157,-0.012746,-0.002247
9.430663,-0.010714,-0.020256,-0.000125
9.440673,-0.027690,0.007566,-0.000041
9.450713,-0.027777,-0.021243,-0.005518
9.460723,-0.028834,-0.014807,-0.010832
9.470763,-0.026698,-0.015902,-0.006558
9.480773,-0.023561,-0.037266,-0.007719
9.490813,-0.036295,-0.016934,-0.007658
9.510864,-0.023522,-0.023388,-0.006585
9.520904,-0.018199,-0.028770,-0.001255
9.530914,-0.010806,-0.052279,-0.003482
9.540954,-0.008622,-0.033063,-0.003385
9.550964,-0.001186,-0.043782,-0.000210
9.561004,0.006224,-0.065190,0.005050
9.581054,0.036094,-0.061065,0.015834
9.591094,0.027603,-0.043916,0.008414
9.601104,0.046757,-0.055730,0.009480
9.611144,0.006224,-0.065190,0.005050
9.621154,0.021078,-0.095186,0.014563
9.631194,0.028666,-0.049294,0.015869
9.641204,0.004112,-0.060936,0.010405
9.651244,-0.015227,-0.107782,-0.006961
9.661285,0.029692,-0.063176,0.014738
9.671294,0.010409,-0.096194,0.009188
9.681335,0.002905,-0.108959,0.003765
9.691344,-0.016067,-0.032011,0.005145
9.701385,-0.055670,-0.080902,-0.017628
9.731445,-0.092866,-0.047725,-0.006892
9.731445,-0.092866,-0.047725,-0.006892
9.741485,-0.057696,-0.048912,-0.005732
9.751525,0.011628,-0.040670,0.010522
9.761535,-0.000080,-0.029907,0.000927
9.771575,0.056483,-0.003402,0.003345
9.791625,0.030963,0.016961,0.005507
9.801635,0.007592,0.049111,-0.001883
9.811675,0.039612,0.056401,0.015331
9.821716,-0.014753,0.055530,0.010904
9.831725,0.058872,0.088417,0.006990
9.841766,0.009812,0.078985,0.002537
9.851775,-0.025298,0.098297,0.007873
9.861816,-0.002875,0.118560,-0.001584
9.871825,-0.038035,0.122946,-0.001660
9.881866,-0.031598,0.138950,-0.002635
9.891906,-0.037968,0.147509,-0.001544
9.901918,-0.050735,0.160406,-0.010064
9.911958,-0.041130,0.161412,-0.003623
9.932008,-0.038930,0.187041,-0.004564
9.942018,-0.020785,0.192286,0.002989
9.952058,-0.029191,0.238250,-0.000022
9.962068,-0.039931,0.211617,-0.006587
9.972108,-0.047380,0.208371,0.007264
9.982148,-0.061243,0.208442,0.001885
9.992158,-0.045296,0.199897,-0.008793
10.002199,-0.045303,0.195610,-0.005609
10.012208,-0.035668,0.209447,-0.002312
10.022249,-0.049558,0.203140,-0.014131
10.032258,-0.032544,0.183816,-0.004561
10.042299,-0.050676,0.180686,-0.007831
10.052339,-0.058224,0.147595,-0.005872
10.082399,-0.046706,0.074958,-0.010457
10.092439,-0.044530,0.090970,-0.010375
10.102449,-0.012717,0.031052,-0.008434
10.112489,-0.000934,0.049138,-0.001907
10.122499,-0.000950,0.042726,-0.000869
10.132539,-0.004315,-0.017058,-0.003297
10.142579,-0.005372,-0.014929,-0.001154
10.152589,0.010528,-0.050253,0.005132
10.162629,0.004024,-0.089740,0.003859
10.172639,0.027531,-0.073848,0.014682
10.182679,0.033852,-0.098411,0.010310
10.192689,0.028439,-0.131519,0.014411
10.202730,0.025293,-0.114437,0.017688
10.212770,0.020973,-0.132558,0.013318
10.222780,0.020928,-0.147494,0.010042
10.232820,0.013450,-0.154955,0.012123
10.242830,-0.003622,-0.163458,0.015240
10.252870,0.015591,-0.149607,0.008949
10.262880,0.007008,-0.170943,0.009893
10.282930,0.005988,-0.162467,0.024885
10.292970,-0.003678,-0.176208,0.001293
10.303010,0.013368,-0.179472,0.002393
10.313020,-0.016454,-0.170822,0.000215
10.323060,0.002715,-0.178375,0.003437
10.333070,-0.022839,-0.166524,-0.000851
10.353120,-0.018538,-0.150499,-0.005036
10.363160,-0.017469,-0.150512,-0.002897
10.373201,-0.025998,-0.147245,-0.010382
10.383210,-0.021680,-0.130198,-0.004949
10.393251,-0.014194,-0.120606,-0.005951
10.403261,-0.019481,-0.104564,-0.006958
10.413301,-0.013060,-0.096052,-0.004763
10.423311,-0.003401,-0.074750,0.000705
10.433351,0.015819,-0.063075,0.002950
10.443391,0.014821,-0.040665,0.007326
10.453401,0.020164,-0.031031,-0.001159
10.453401,0.020164,-0.031031,-0.001159
10.473451,0.006404,0.001027,0.004295
10.503541,-0.005212,0.038427,0.007645
10.513551,0.014028,0.056499,0.012056
10.523591,0.002303,0.057621,0.008825
10.533632,0.007650,0.065084,0.007807
10.543641,0.006614,0.073611,0.012117
10.543641,0.006614,0.073611,0.012117
10.553682,0.020491,0.079963,0.014322
10.563691,0.014079,0.077883,0.006817
10.573732,0.022640,0.090671,0.006901
10.583741,0.006643,0.086446,0.007905
10.593782,0.005575,0.084303,0.010028
10.603822,0.016263,0.098177,0.004782
10.613832,0.016239,0.090712,0.002610
10.633882,0.010886,0.083264,0.000424
10.643922,0.002322,0.069408,0.000335
10.653932,0.003402,0.075823,-0.001768
10.663972,-0.010466,0.070523,-0.000764
10.673982,-0.017961,0.058805,-0.001908
10.684022,-0.011542,0.070557,-0.007176
10.704072,-0.014809,0.043859,-0.005175
10.714113,-0.034035,0.031126,-0.009561
10.724122,-0.043631,0.029016,-0.008529
10.734163,-0.034050,0.025787,-0.009586
10.744172,-0.043709,0.006641,-0.019317
10.754213,-0.022402,-0.000940,-0.011817
10.774263,-0.034160,-0.012644,-0.012973
10.774263,-0.034160,-0.012644,-0.012973
10.784303,-0.023513,-0.014799,-0.016158
10.794313,-0.020330,-0.024456,-0.008718
10.804353,-0.026800,-0.050050,-0.012061
10.814363,-0.017158,-0.030849,-0.014080
10.824403,-0.022511,-0.038297,-0.016267
10.854493,-0.030054,-0.067096,-0.018560
10.854493,-0.030054,-0.067096,-0.018560
10.864503,-0.024683,-0.056475,-0.009949
10.874543,-0.015113,-0.062899,-0.013158
10.884553,-0.017236,-0.059688,-0.013149
10.894594,-0.012986,-0.066124,-0.009963
10.924722,-0.003387,-0.066176,-0.005663
10.924722,-0.003387,-0.066176,-0.005663
10.934732,-0.005562,-0.077881,-0.013202
10.944772,0.009409,-0.060852,-0.010944
10.954782,-0.000185,-0.064045,-0.006713
10.964822,0.003002,-0.068332,-0.005656
10.984872,0.008345,-0.061932,-0.007747
10.984872,0.008345,-0.061932,-0.007747
10.994912,0.017909,-0.069413,-0.013097
11.004922,0.010456,-0.069414,-0.007777
11.014962,0.027534,-0.058775,-0.010884
11.024972,0.030774,-0.043840,-0.009736
11.035012,0.014741,-0.059802,-0.010924
11.065072,0.025415,-0.053424,-0.011933
11.065072,0.025415,-0.053424,-0.011933
11.075112,0.022246,-0.043807,-0.010828
11.085153,0.024391,-0.040625,-0.007602
11.095163,0.026478,-0.054495,-0.011935
11.105203,0.023323,-0.038461,-0.012936
11.125253,0.022238,-0.047016,-0.009775
11.125253,0.022238,-0.047016,-0.009775
11.135263,0.015851,-0.042708,-0.012977
11.145303,0.019096,-0.025637,-0.011819
11.155343,0.010553,-0.032017,-0.011873
11.165353,0.002035,-0.027707,-0.014012
11.175393,0.003064,-0.037292,-0.020464
11.205453,-0.000097,-0.028778,-0.011887
11.205453,-0.000097,-0.028778,-0.011887
11.215493,0.006309,-0.022371,-0.016112
11.225534,0.013746,-0.029861,-0.018263
11.235543,0.003107,-0.023424,-0.017194
11.245584,0.000997,-0.017019,-0.015033
11.265634,-0.000091,-0.021257,-0.021465
11.265634,-0.000091,-0.021257,-0.021465
11.275644,0.011644,-0.021331,-0.013955
11.285684,-0.012892,-0.030873,-0.011932
11.295694,-0.007501,-0.005234,-0.017137
11.305734,0.010543,-0.031986,-0.018282
11.315774,-0.005401,-0.019145,-0.012924
11.345834,0.006280,-0.033051,-0.016162
11.345834,0.006280,-0.033051,-0.016162
11.355874,0.015944,-0.012842,-0.005358
11.365884,0.010540,-0.034132,-0.016156
11.375924,0.024382,-0.041673,-0.011880
11.385965,0.002075,-0.014907,-0.010747
11.406015,0.002037,-0.025561,-0.016138
11.406015,0.002037,-0.025561,-0.016138
11.416024,-0.011860,-0.043696,-0.010922
11.426065,-0.005452,-0.037294,-0.014078
11.436074,0.003061,-0.042667,-0.013012
11.446115,-0.008643,-0.032997,-0.017271
11.456124,0.004121,-0.043728,-0.015150
11.486215,0.005199,-0.042694,-0.008733
11.486215,0.005199,-0.042694,-0.008733
11.496255,0.003090,-0.030909,-0.015093
11.506265,0.011569,-0.046946,-0.017282
11.516305,0.009450,-0.043745,-0.015136
11.526315,0.005190,-0.043742,-0.013011
11.556405,-0.004432,-0.052234,-0.017351
11.556405,-0.004432,-0.052234,-0.017351
11.566446,-0.001183,-0.035172,-0.014056
11.576455,-0.004465,-0.060747,-0.023800
11.586496,0.000935,-0.039446,-0.015139
11.596505,-0.005467,-0.041556,-0.016235
11.626596,-0.010855,-0.061819,-0.018482
11.626596,-0.010855,-0.061819,-0.018482
11.636636,-0.006592,-0.060755,-0.020602
11.646646,-0.003389,-0.059708,-0.018451
11.656686,-0.006586,-0.059697,-0.018460
11.666696,-0.002324,-0.060784,-0.017385
11.676736,-0.000203,-0.062912,-0.020594
11.686746,-0.004458,-0.062923,-0.015265
11.696786,-0.007664,-0.063965,-0.018483
11.706826,-0.005507,-0.056512,-0.015238
11.716836,-0.017305,-0.082089,-0.018596
11.726876,-0.017246,-0.059657,-0.019558
11.736886,-0.018312,-0.062883,-0.014235
11.756936,-0.021504,-0.057503,-0.020628
11.766977,-0.037532,-0.069173,-0.026068
11.777017,-0.039625,-0.055283,-0.026008
11.787027,-0.028970,-0.057463,-0.023853
11.797067,-0.033235,-0.056366,-0.027064
11.807077,-0.025768,-0.057489,-0.020639
11.827127,-0.025779,-0.061761,-0.020659
11.827127,-0.025779,-0.061761,-0.020659
11.837167,-0.010833,-0.052193,-0.021641
11.847177,-0.028927,-0.043595,-0.020582
11.857217,-0.011908,-0.055393,-0.021659
11.867257,-0.027823,-0.029716,-0.020514
11.877267,-0.025754,-0.054300,-0.017419
11.897317,-0.025681,-0.028680,-0.015162
11.907375,-0.024643,-0.038290,-0.016272
11.917385,-0.015081,-0.045766,-0.022691
11.927425,-0.006493,-0.028753,-0.012973
11.937466,-0.012921,-0.037245,-0.019440
11.947475,-0.008669,-0.042608,-0.017317
11.967526,-0.013942,-0.023379,-0.015104
11.967526,-0.013942,-0.023379,-0.015104
11.977566,-0.006518,-0.036213,-0.016213
11.987576,-0.010761,-0.028724,-0.016189
11.997616,-0.007575,-0.033006,-0.016200
12.007626,-0.005438,-0.030877,-0.016184
12.017666,-0.011820,-0.029818,-0.009788
12.037716,-0.018211,-0.024423,-0.017257
12.047756,-0.024653,-0.040411,-0.019487
12.057766,-0.016084,-0.026570,-0.016193
12.067806,-0.025709,-0.035052,-0.022669
12.077816,-0.011853,-0.037253,-0.018369
12.087856,-0.026791,-0.041461,-0.021634
12.107906,-0.026798,-0.040363,-0.028039
12.117947,-0.022543,-0.046815,-0.021648
12.127956,-0.019355,-0.053258,-0.016329
12.137997,-0.016165,-0.054321,-0.019529
12.148006,-0.007662,-0.061814,-0.021678
12.158047,-0.009748,-0.046872,-0.018408
12.178097,-0.009788,-0.060750,-0.019542
12.178097,-0.009788,-0.060750,-0.019542
12.188137,-0.018332,-0.068208,-0.017465
12.198147,-0.014056,-0.060721,-0.022759
12.208187,-0.014035,-0.054323,-0.020592
12.218197,-0.011922,-0.061811,-0.019553
12.228237,-0.015132,-0.064994,-0.021714
12.248287,-0.012990,-0.062880,-0.018493
12.258328,-0.007638,-0.056505,-0.015243
12.268337,-0.011872,-0.044734,-0.017336
12.278378,-0.026809,-0.053254,-0.012076
12.288387,-0.016149,-0.050065,-0.016305
12.298428,-0.022590,-0.069287,-0.012141
12.318478,-0.007487,-0.007431,-0.004329
12.318478,-0.007487,-0.007431,-0.004329
12.328518,-0.037508,-0.068171,-0.012177
12.338528,-0.002270,-0.049108,-0.002375
12.348568,-0.003283,-0.029881,-0.002287
12.358578,0.005233,-0.030952,-0.007609
12.368618,0.001992,-0.049116,-0.003431
12.388668,0.008431,-0.034196,-0.001207
12.398678,0.000975,-0.034187,0.001977
12.408718,0.006298,-0.040648,0.009439
12.418758,0.013790,-0.025690,0.003121
12.428768,0.008432,-0.036352,0.003056
12.438808,0.004165,-0.040636,0.008365
12.458859,-0.007562,-0.036280,-0.001261
12.458859,-0.007562,-0.036280,-0.001261
12.468868,-0.000085,-0.032048,0.001985
12.478909,-0.002209,-0.029910,0.003057
12.488949,-0.002222,-0.033099,-0.000163
12.498959,-0.003296,-0.035226,-0.001244
12.508999,-0.004330,-0.025627,0.002003
12.529049,-0.002189,-0.021357,0.000961
12.539059,-0.006478,-0.032032,0.003035
12.549099,-0.003288,-0.034173,0.001966
12.559139,-0.003289,-0.030939,-0.004428
12.569149,0.004193,-0.025644,-0.000110
12.579189,-0.002227,-0.035240,0.000895
12.599239,-0.009699,-0.040565,0.002986
12.599239,-0.009699,-0.040565,0.002986
12.609249,-0.020319,-0.026648,0.003022
12.619289,-0.010761,-0.035187,-0.004469
12.629299,-0.034210,-0.037262,-0.001339
12.639339,-0.033158,-0.043683,0.000770
12.649380,-0.043804,-0.036147,-0.004565
12.679440,-0.026733,-0.033029,0.001906
12.679440,-0.026733,-0.033029,0.001906
12.689480,-0.010778,-0.044828,0.001895
12.699490,-0.021373,-0.019138,-0.003354
12.709530,0.020179,-0.027847,0.003129
12.719570,-0.010710,-0.020266,0.002011
12.749630,-0.018175,-0.022383,0.003049
12.759670,-0.001043,0.003162,0.009626
12.769680,-0.017059,-0.008544,0.011663
12.779720,-0.034140,-0.017017,0.008371
12.789730,-0.014932,-0.007457,0.006333
12.799770,-0.036242,-0.005252,0.006284
12.809811,-0.027730,-0.017083,0.018002
12.819820,-0.026612,0.007522,0.008508
12.829861,-0.011718,-0.003211,0.009566
12.839870,-0.010664,-0.007486,0.009549
12.849911,-0.009559,0.003159,0.016012
12.859921,0.001073,-0.003258,0.010670
12.869961,0.004264,-0.010789,0.020257
12.880001,0.012842,0.007333,0.021434
12.890011,0.006393,-0.007557,0.012800
12.900051,0.023474,0.000916,0.016092
12.910090,0.006411,-0.001149,0.012831
12.920130,0.004251,-0.016134,0.021300
12.930140,0.016021,0.003071,0.017150
12.940180,0.005331,-0.007564,0.014934
12.950190,-0.001061,-0.006475,0.014921
12.960230,0.006416,-0.001165,0.016035
12.970271,-0.018153,-0.017068,0.008415
12.980280,-0.016001,-0.014985,0.018045
12.990321,-0.018088,-0.000037,0.020246
13.000330,-0.023485,-0.017041,0.006264
13.020380,-0.011729,-0.012873,0.020203
13.030421,-0.006450,-0.027811,0.013737
13.040461,0.003217,-0.002227,0.017090
13.050471,-0.014930,-0.016082,0.023383
13.060511,0.004262,-0.008628,0.014926
13.070521,0.002131,-0.011855,0.021314
13.090571,-0.001088,-0.019315,0.020202
13.100611,-0.018115,-0.008571,0.018069
13.110651,-0.022440,-0.030983,0.017951
13.120661,-0.014889,-0.000053,0.021323
13.130701,-0.017092,-0.021364,0.012670
13.140711,-0.029858,-0.014935,0.016938
13.160761,-0.023469,-0.017092,0.016946
13.160761,-0.023469,-0.017092,0.016946
13.170802,-0.049056,-0.021290,0.018992
13.180811,-0.006386,-0.008624,0.021306
13.190852,-0.012826,-0.025695,0.022275
13.200892,-0.023436,-0.007501,0.021264
13.210902,-0.005346,-0.016088,0.018069
13.230952,-0.011682,-0.000093,0.027741
13.240992,-0.021331,-0.016041,0.019093
13.251002,-0.019173,-0.008592,0.023407
13.261042,-0.007456,-0.012917,0.026624
13.271082,-0.017026,-0.009723,0.035158
13.281092,-0.006374,-0.005430,0.023457
13.301142,-0.014927,-0.016092,0.025520
13.301142,-0.014927,-0.016092,0.025520
13.311182,0.001092,-0.003319,0.023488
13.321192,-0.017038,-0.012917,0.033006
13.331232,0.002182,0.000909,0.032057
13.341242,-0.008473,0.002012,0.032033
13.351283,-0.019167,-0.006457,0.023417
13.371333,-0.023423,-0.007541,0.029810
13.381373,0.001094,-0.003324,0.024556
13.391383,0.008539,-0.012995,0.032009
13.401423,-0.009562,-0.005450,0.029858
13.411433,0.008526,-0.017261,0.030920
13.421473,-0.006338,0.003073,0.032043
13.441523,0.024530,-0.009828,0.028863
13.451563,-0.007475,-0.017164,0.021262
13.461573,0.018140,-0.010900,0.034181
13.471613,-0.014890,-0.004360,0.028780
13.481623,0.003164,-0.026835,0.026587
13.491663,0.001106,-0.001208,0.028839
13.511713,-0.016015,-0.026788,0.029739
13.521754,-0.006369,-0.007601,0.030925
13.531763,-0.018148,-0.021391,0.019076
13.541804,-0.012791,-0.019343,0.034056
13.551814,-0.004284,-0.023617,0.028718
13.561854,-0.009706,-0.049159,0.013627
13.581904,0.015956,-0.024731,0.024496
13.591944,-0.015013,-0.047057,0.024305
13.601954,-0.020252,-0.017163,0.029773
13.611994,-0.026689,-0.026703,0.019028
13.622004,-0.031002,-0.048078,0.025324
13.632044,-0.023497,-0.031005,0.023289
13.652094,-0.034190,-0.045942,0.027462
13.662135,-0.012856,-0.040681,0.029682
13.672144,-0.026677,-0.024587,0.023311
13.682185,-0.027820,-0.053423,0.024239
13.692194,-0.028801,-0.023527,0.026514
13.702235,-0.027739,-0.022443,0.022250
13.732295,-0.030918,-0.017103,0.024403
13.742335,-0.024597,-0.043822,0.024294
13.752375,-0.023492,-0.032098,0.028625
13.762385,-0.013892,-0.027848,0.026535
13.772425,-0.012840,-0.033191,0.026513
13.782435,-0.016038,-0.034258,0.028635
13.792475,0.002117,-0.020429,0.027683
13.802485,-0.015008,-0.043843,0.022184
13.812525,-0.007537,-0.039590,0.021156
13.822566,-0.008552,-0.024666,0.027633
13.832575,-0.008573,-0.029986,0.023335
13.842616,-0.003237,-0.028950,0.026559
13.852625,-0.008542,-0.022546,0.030848
13.862666,-0.006487,-0.044928,0.020066
13.872675,-0.001096,-0.025753,0.026580
13.882716,-0.008562,-0.025714,0.023355
13.892756,-0.007519,-0.034261,0.023318
13.902777,-0.006417,-0.019298,0.020187
13.912817,-0.002176,-0.026782,0.019095
13.922827,-0.001124,-0.031052,0.018010
13.932867,-0.010683,-0.020352,0.020170
13.942877,-0.009641,-0.028899,0.020133
13.952917,-0.007508,-0.022448,0.009487
13.962927,-0.011819,-0.041672,0.012589
13.972967,-0.010714,-0.031026,0.019051
13.983007,-0.008557,-0.019266,0.014840
13.993017,-0.009666,-0.030974,0.007304
14.003057,-0.008560,-0.020334,0.014835
14.013067,-0.032083,-0.048024,0.014639
14.023108,-0.032085,-0.048019,0.013571
14.033117,-0.023479,-0.014905,0.006274
14.043158,-0.043825,-0.052237,0.010314
14.053198,-0.041667,-0.042633,0.010365
14.063208,-0.022467,-0.030897,-0.000208
14.063208,-0.022467,-0.030897,-0.000208
14.083258,-0.033156,-0.051229,0.015689
14.093298,-0.044832,-0.030875,0.010412
14.103308,-0.035274,-0.041570,0.007183
14.113348,-0.032084,-0.050175,0.017834
14.123358,-0.035251,-0.037334,0.014681
14.133398,-0.036353,-0.046912,0.008223
14.143438,-0.041677,-0.043680,0.006087
14.143438,-0.041677,-0.043680,0.006087
14.163488,-0.050198,-0.042590,0.007137
14.173498,-0.060861,-0.043618,0.006035
14.183538,-0.070423,-0.035064,0.010322
14.183538,-0.070423,-0.035064,0.010322
14.203588,-0.086436,-0.039238,0.000644
14.213629,-0.088583,-0.048878,0.008070
14.223639,-0.092837,-0.046738,0.010204
14.223639,-0.092837,-0.046738,0.010204
14.243689,-0.078935,-0.023233,-0.001396
14.253729,-0.075769,-0.043610,0.014539
14.253729,-0.075769,-0.043610,0.014539
14.273779,-0.035197,-0.018116,0.015840
14.293829,-0.013921,-0.026678,0.005176
14.303869,-0.014987,-0.036367,0.022219
14.303869,-0.014987,-0.036367,0.022219
14.323919,0.007437,-0.027957,0.035139
14.323919,0.007437,-0.027957,0.035139
14.333929,-0.015932,0.008494,0.021360
14.343969,0.021364,-0.000221,0.032104
14.374060,0.025693,0.024333,0.031164
14.374060,0.025693,0.024333,0.031164
14.384069,-0.026559,0.025666,0.010730
14.394110,-0.010525,0.037316,0.020443
14.404119,-0.005171,0.045837,0.021567
14.414160,-0.053148,0.048199,0.006490
14.434210,-0.051017,0.047115,0.008628
14.434210,-0.051017,0.047115,0.008628
14.444250,-0.042488,0.052467,0.000131
14.454260,-0.031786,0.065217,0.006630
14.464300,-0.022218,0.056648,0.005548
14.474310,-0.046718,0.058838,0.010831
14.484350,-0.027465,0.073640,0.029114
14.514410,0.001261,0.070475,0.001405
14.514410,0.001261,0.070475,0.001405
14.524450,0.024711,0.073623,-0.002788
14.534491,-0.064712,0.102666,0.014194
14.544500,0.019420,0.087523,-0.002737
14.554541,-0.032814,0.074796,0.014150
14.574591,0.008749,0.081135,0.000408
14.574591,0.008749,0.081135,0.000408
14.584600,-0.033852,0.093026,-0.000722
14.594641,-0.020048,0.072675,0.002425
14.604681,0.010837,0.062953,0.004601
14.614691,-0.047708,0.083378,0.016286
14.624731,0.009776,0.062941,0.007802
14.654791,0.047022,0.034993,0.020592
14.654791,0.047022,0.034993,0.020592
14.664831,0.018267,0.044713,0.017353
14.674841,0.011803,0.014791,0.025740
14.684881,0.022526,0.042558,0.018423
14.694921,0.022506,0.028620,0.030108
14.724981,0.017096,0.000886,0.026757
14.724981,0.017096,0.000886,0.026757
14.735022,0.018120,-0.019454,0.036277
14.745031,0.012842,0.001948,0.031023
14.755072,0.010636,-0.020432,0.022365
14.765112,0.018083,-0.024722,0.021297
14.785162,-0.005413,-0.047113,0.029672
14.795172,-0.001090,-0.019310,0.019133
14.805212,-0.001102,-0.026811,0.024439
14.815222,0.003103,-0.049262,0.026481
14.825262,0.017018,-0.027953,0.027688
14.835302,0.026588,-0.033299,0.022348
14.855352,0.046830,-0.039802,0.028783
14.865362,0.040392,-0.057957,0.032952
14.875402,0.021206,-0.051426,0.020111
14.885412,0.019135,-0.031144,0.023406
14.895452,0.013754,-0.050354,0.024369
14.905506,0.025520,-0.039753,0.032997
14.935597,0.006338,-0.036467,0.028687
14.935597,0.006338,-0.036467,0.028687
14.945637,0.019192,-0.011936,0.026702
14.955647,0.009503,-0.046068,0.024377
14.965687,-0.002172,-0.032183,0.031888
14.975697,0.006348,-0.031112,0.025507
14.995777,-0.002211,-0.047139,0.032886
14.995777,-0.002211,-0.047139,0.032886
15.005787,0.005309,-0.021497,0.025550
15.015827,-0.016063,-0.047104,0.034984
15.025837,0.006343,-0.034326,0.027629
15.035877,-0.012830,-0.032148,0.031859
15.045887,-0.005409,-0.043894,0.026483
15.075977,0.003089,-0.051372,0.021130
15.075977,0.003089,-0.051372,0.021130
15.086018,-0.003266,-0.040707,0.028640
15.096027,0.011649,-0.046121,0.033997
15.106068,-0.009708,-0.053461,0.020016
15.116078,-0.013967,-0.053463,0.023209
15.136128,-0.020396,-0.067335,0.025262
15.136128,-0.020396,-0.067335,0.025262
15.146168,-0.011822,-0.049203,0.024303
15.156208,-0.011841,-0.054527,0.021074
15.166218,-0.018259,-0.066284,0.027410
15.176258,-0.007566,-0.053504,0.027500
15.186268,-0.005445,-0.054553,0.022159
15.216358,-0.006546,-0.066287,0.019964
15.216358,-0.006546,-0.066287,0.019964
15.226399,-0.000139,-0.063114,0.022134
15.236408,-0.015063,-0.067368,0.028481
15.246449,-0.004364,-0.052451,0.028582
15.256458,-0.008640,-0.055626,0.025350
15.276508,-0.009697,-0.054575,0.029625
15.276508,-0.009697,-0.054575,0.029625
15.286549,-0.022487,-0.056684,0.032784
15.296558,-0.007539,-0.046048,0.031808
15.306599,-0.005419,-0.049249,0.029662
15.316639,-0.011793,-0.043909,0.033943
15.326649,0.008459,-0.043980,0.035066
15.346699,-0.001093,-0.032227,0.040437
15.356739,0.011741,-0.017327,0.042679
15.366749,-0.002148,-0.022561,0.029797
15.376789,0.004277,-0.015137,0.036259
15.386829,0.004323,-0.002357,0.043798
15.396839,-0.008533,-0.020420,0.032994
15.426930,0.002178,-0.000154,0.030983
15.426930,0.002178,-0.000154,0.030983
15.436939,0.007588,0.027580,0.034334
15.446980,0.004411,0.036144,0.032230
15.456989,-0.008426,0.021255,0.027851
15.467030,-0.001955,0.046844,0.032263
15.487080,0.001254,0.054339,0.025898
15.497120,0.004474,0.056409,0.037667
15.507130,-0.018998,0.052254,0.029036
15.517170,-0.012606,0.050087,0.031180
15.527180,-0.009376,0.062902,0.029113
15.537220,-0.013644,0.061853,0.028028
15.557270,-0.018948,0.070409,0.029122
15.567310,-0.021103,0.062950,0.026945
15.577320,-0.011517,0.060783,0.026961
15.587360,-0.012567,0.063970,0.031246
15.597370,-0.012569,0.062897,0.032309
15.607411,-0.014697,0.063972,0.032308
15.627461,-0.016861,0.056539,0.024790
15.627461,-0.016861,0.056539,0.024790
15.637501,-0.024307,0.058674,0.030120
15.647511,-0.024348,0.043723,0.030050
15.657551,-0.024356,0.043748,0.024709
15.667561,-0.027566,0.040565,0.022548
15.677601,-0.024366,0.041623,0.022562
15.697651,-0.030773,0.036299,0.023587
15.707691,-0.037213,0.024613,0.014969
15.717701,-0.019103,0.020272,0.017135
15.727741,-0.036193,0.007517,0.015959
15.737751,-0.036186,0.006419,0.022363
15.747791,-0.029776,0.014967,0.017080
15.767841,-0.024513,-0.006384,0.011652
15.777882,-0.023469,-0.018170,0.019077
15.787891,-0.019237,-0.026702,0.013707
15.797932,-0.024567,-0.026679,0.012624
15.807942,-0.009640,-0.027826,0.019070
15.817982,-0.013931,-0.035262,0.013681
15.838032,-0.012858,-0.034213,0.016894
15.848042,-0.010755,-0.045977,0.018981
15.858082,-0.014012,-0.063013,0.010345
15.868122,-0.022507,-0.053389,0.013572
15.878132,-0.018245,-0.056632,0.018910
15.888172,-0.008661,-0.055560,0.011464
15.908225,-0.015070,-0.061957,0.013552
15.908225,-0.015070,-0.061957,0.013552
15.918235,-0.015088,-0.067287,0.011390
15.928275,-0.006588,-0.075848,0.009237
15.938316,-0.014021,-0.065139,0.008199
15.948325,-0.023609,-0.065123,0.011377
15.958366,-0.010821,-0.063003,0.006081
15.988426,-0.017206,-0.058706,0.005016
15.988426,-0.017206,-0.058706,0.005016
15.998466,-0.006568,-0.061909,-0.002447
16.008506,-0.003375,-0.062982,-0.003512
16.018516,-0.002299,-0.059787,-0.002426
16.028556,-0.000191,-0.067259,-0.004592
16.048606,-0.003352,-0.047976,-0.015191
16.048606,-0.003352,-0.047976,-0.015191
16.058616,-0.005502,-0.057605,-0.009902
16.068656,-0.008702,-0.057585,-0.012047
16.078666,-0.004437,-0.054375,-0.016293
16.088706,-0.009774,-0.054332,-0.021648
16.098747,-0.010848,-0.059688,-0.017404
16.118797,-0.016163,-0.050019,-0.025918
16.118797,-0.016163,-0.050019,-0.025918
16.128806,-0.016163,-0.048941,-0.028050
16.138847,-0.028981,-0.058506,-0.029199
16.148856,-0.027902,-0.051009,-0.034501
16.158897,-0.036410,-0.044578,-0.033426
16.168937,-0.037481,-0.043482,-0.038765
16.188987,-0.034274,-0.040288,-0.038741
16.198997,-0.033237,-0.048820,-0.041983
16.209037,-0.035386,-0.054143,-0.044151
16.219047,-0.025750,-0.040311,-0.039786
16.229087,-0.024707,-0.047780,-0.041955
16.239097,-0.026853,-0.049883,-0.047312
16.259177,-0.025781,-0.047751,-0.047299
16.259177,-0.025781,-0.047751,-0.047299
16.269187,-0.011883,-0.032850,-0.046121
16.279228,0.001902,-0.054218,-0.053662
16.289237,-0.007652,-0.040304,-0.053622
16.299278,-0.002315,-0.039269,-0.050398
16.309287,-0.005558,-0.049887,-0.061140
16.329368,0.001938,-0.037096,-0.061058
16.339378,-0.003421,-0.046680,-0.063255
16.349418,0.007260,-0.039244,-0.062122
16.359428,0.004051,-0.041354,-0.065345
16.369468,0.001886,-0.052012,-0.068606
16.379478,0.002982,-0.040263,-0.069616
16.399558,0.008311,-0.040280,-0.069601
16.399558,0.008311,-0.040280,-0.069601
16.409568,0.016817,-0.046705,-0.071745
16.419608,0.020014,-0.044559,-0.075999
16.429618,0.020029,-0.041376,-0.071711
16.439658,0.028549,-0.043539,-0.071697
16.449668,0.036000,-0.047840,-0.070629
16.469718,0.036020,-0.040365,-0.070593
16.479759,0.038119,-0.049963,-0.074906
16.489799,0.030693,-0.034968,-0.079128
16.499809,0.028571,-0.033913,-0.074856
16.509849,0.028527,-0.051010,-0.072801
16.519859,0.027477,-0.044594,-0.073842
16.539909,0.026395,-0.047769,-0.079201
16.549949,0.027497,-0.038191,-0.072743
16.559989,0.034964,-0.033929,-0.075907
16.569999,0.026429,-0.037105,-0.075946
16.580039,0.027508,-0.031764,-0.076986
16.590049,0.034965,-0.031778,-0.079101
16.610099,0.027510,-0.028539,-0.081243
16.620139,0.030703,-0.029613,-0.082308
16.630149,0.033924,-0.021080,-0.082258
16.640189,0.027505,-0.028524,-0.084448
16.650230,0.029656,-0.021051,-0.085475
16.660239,0.017914,-0.024186,-0.091931
16.680290,0.015806,-0.012407,-0.097222
16.680290,0.015806,-0.012407,-0.097222
16.690330,0.005147,-0.012367,-0.098320
16.700340,0.007275,-0.011286,-0.102582
16.710380,-0.000112,0.015437,-0.102476
16.720420,-0.008689,-0.002690,-0.102585
16.730430,0.003046,-0.000608,-0.099338
16.750480,0.001987,0.004761,-0.104657
16.760520,0.015871,0.012166,-0.099242
16.770530,0.010568,0.022873,-0.101343
16.780570,0.012634,0.001527,-0.105711
16.790611,0.010557,0.020752,-0.104558
16.800620,0.008452,0.029292,-0.102387
16.810661,0.011632,0.020718,-0.098145
16.820670,0.005217,0.015419,-0.102461
16.830711,0.000965,0.019705,-0.102453
16.840720,0.009506,0.025017,-0.102404
16.850761,0.005202,0.011158,-0.104618
16.860770,0.008424,0.020764,-0.105632
16.870811,0.007352,0.017553,-0.103513
16.890861,0.010554,0.018606,-0.102431
16.900901,0.007361,0.022913,-0.107761
16.910946,0.015837,0.006887,-0.112086
16.920986,0.015872,0.019702,-0.112025
16.930996,0.021182,0.011126,-0.108847
16.941036,0.030773,0.012178,-0.112020
16.961086,0.036122,0.019636,-0.111970
16.971127,0.039307,0.016432,-0.114112
16.981136,0.044602,0.005751,-0.117353
16.991177,0.041425,0.014315,-0.119458
17.001186,0.036078,0.009003,-0.121634
17.011227,0.039288,0.016493,-0.126931
17.031277,0.035022,0.016517,-0.129079
17.041317,0.031791,0.008014,-0.135537
17.051327,0.025398,0.009108,-0.136618
17.061367,0.025415,0.016594,-0.138719
17.071377,0.025395,0.009118,-0.138754
17.081417,0.022210,0.015551,-0.141937
17.101467,0.030713,0.006980,-0.141954
17.111507,0.032798,-0.005806,-0.149487
17.121517,0.028576,0.010236,-0.151559
17.131557,0.018956,0.001739,-0.154830
17.141567,0.020031,0.006013,-0.155875
17.151607,0.017893,0.002811,-0.154828
17.161617,0.015732,-0.006784,-0.157016
17.171658,0.023229,0.007080,-0.157998
17.181698,0.031730,-0.002564,-0.156952
17.191708,0.031684,-0.016422,-0.162359
17.201748,0.031722,-0.002539,-0.162293
17.211758,0.032770,-0.007872,-0.164452
17.221798,0.026356,-0.014253,-0.165568
17.241848,0.019939,-0.019547,-0.170952
17.251858,0.018845,-0.030228,-0.169937
17.261898,0.021032,-0.005632,-0.178360
17.271938,0.009261,-0.021602,-0.180605
17.281948,-0.000374,-0.036517,-0.181770
17.291988,0.002831,-0.030090,-0.188140
17.301998,-0.000342,-0.023692,-0.183846
17.312038,0.007097,-0.029036,-0.188123
17.322048,0.012423,-0.030121,-0.188114
17.332088,0.004945,-0.034348,-0.192427
17.342129,0.018830,-0.021563,-0.195533
17.352138,0.017773,-0.017278,-0.197652
17.362179,0.015588,-0.034337,-0.202012
17.382229,0.013477,-0.024699,-0.206245
17.392239,0.014532,-0.026823,-0.209457
17.402279,0.011325,-0.028938,-0.211612
17.412289,0.010275,-0.021444,-0.214784
17.422329,0.012391,-0.027864,-0.213740
17.432369,0.011304,-0.032101,-0.220173
17.452419,-0.002612,-0.044791,-0.237362
17.462429,0.005979,-0.022402,-0.235096
17.472469,0.014519,-0.021397,-0.227591
17.482479,0.013418,-0.025590,-0.243637
17.492519,0.009142,-0.033076,-0.238343
17.502560,0.010255,-0.017071,-0.236128
17.512569,0.017677,-0.027744,-0.242567
17.522610,0.019843,-0.012780,-0.246763
17.532619,0.061401,-0.017197,-0.244533
17.542660,0.037957,-0.020365,-0.236067
17.552669,0.045408,-0.016052,-0.249912
17.562710,0.058218,-0.014003,-0.240253
17.572750,0.063533,-0.013975,-0.249852
17.592800,0.070991,-0.015067,-0.249837
17.602810,0.082716,-0.015110,-0.248737
17.612850,0.089082,-0.022581,-0.254095
17.622860,0.105109,-0.008755,-0.252917
17.632900,0.111490,-0.016271,-0.248663
17.642910,0.100812,-0.020483,-0.254053
17.652950,0.111500,-0.008766,-0.255036
17.662991,0.111500,-0.008766,-0.255036
17.673000,0.105073,-0.018336,-0.259372
17.683041,0.110398,-0.020494,-0.258299
17.693050,0.103994,-0.018292,-0.267921
17.703091,0.098657,-0.021478,-0.267950
17.713100,0.101865,-0.016139,-0.270053
17.723141,0.093321,-0.021441,-0.272238
17.733181,0.102950,-0.007584,-0.273214
17.743191,0.096537,-0.013971,-0.273262
17.753231,0.093316,-0.019270,-0.279705
17.763241,0.100822,-0.003280,-0.278541
17.773281,0.094431,0.002116,-0.286010
17.783291,0.082663,-0.013865,-0.286118
17.793331,0.084828,0.000026,-0.289251
17.793331,0.084828,0.000026,-0.289251
17.813381,0.068801,-0.007336,-0.302149
17.813381,0.068801,-0.007336,-0.302149
17.833431,0.065591,-0.006208,-0.312835
17.843471,0.063497,0.008760,-0.314906
17.853481,0.053873,0.000274,-0.320314
17.873531,0.040024,0.008918,-0.332062
17.873531,0.040024,0.008918,-0.332062
17.883572,0.032536,0.002565,-0.338522
17.903660,0.030386,-0.000602,-0.344952
17.903660,0.030386,-0.000602,-0.344952
17.913700,0.027224,0.013302,-0.347031
17.933750,0.029283,0.000465,-0.351330
17.953800,0.039972,0.004772,-0.358787
17.953800,0.039972,0.004772,-0.358787
17.963840,0.044176,-0.014444,-0.363139
17.973850,0.034626,0.001611,-0.364157
17.983890,0.034588,-0.010116,-0.368486
17.993900,0.028190,-0.009007,-0.372771
18.003940,0.031384,-0.010085,-0.372767
18.023990,0.031423,0.005949,-0.375896
18.023990,0.031423,0.005949,-0.375896
18.044040,0.037756,-0.014342,-0.380247
18.044040,0.037756,-0.014342,-0.380247
18.054081,0.041012,0.007006,-0.380137
18.064091,0.045222,-0.011153,-0.382348
18.074131,0.045225,-0.011163,-0.380212
18.104191,0.062279,-0.009067,-0.383359
18.104191,0.062279,-0.009067,-0.383359
18.114231,0.058024,-0.003693,-0.387619
18.124271,0.069729,-0.010134,-0.388685
18.134281,0.074005,-0.004803,-0.389716
18.144321,0.071855,-0.009048,-0.394015
18.174381,0.078220,-0.016513,-0.400442
18.174381,0.078220,-0.016513,-0.400442
18.184421,0.099557,-0.010185,-0.398217
18.194431,0.105955,-0.006987,-0.401388
18.204471,0.105918,-0.017641,-0.406780
18.214512,0.098467,-0.015491,-0.404654
18.234562,0.096335,-0.013328,-0.408923
18.234562,0.096335,-0.013328,-0.408923
18.244572,0.083500,-0.026071,-0.415428
18.254612,0.102689,-0.023993,-0.416433
18.264622,0.111206,-0.026146,-0.418556
18.274662,0.111223,-0.021890,-0.415331
18.284702,0.105879,-0.026134,-0.417502
18.304752,0.128287,-0.015517,-0.419527
18.304752,0.128287,-0.015517,-0.419527
18.314762,0.129315,-0.030482,-0.417458
18.324802,0.122926,-0.025096,-0.422791
18.334812,0.125066,-0.022972,-0.421707
18.344852,0.130404,-0.017635,-0.424872
18.354893,0.135714,-0.024054,-0.425956
18.374943,0.125089,-0.007966,-0.433387
18.384952,0.115466,-0.020765,-0.430269
18.394993,0.093059,-0.025996,-0.437833
18.405002,0.092018,-0.018532,-0.434596
18.415043,0.089900,-0.014259,-0.433514
18.425052,0.086617,-0.041984,-0.440063
18.445133,0.087726,-0.024891,-0.442116
18.455143,0.098366,-0.033484,-0.438922
18.465183,0.091987,-0.025972,-0.442109
18.475193,0.099451,-0.022778,-0.445278
18.485233,0.104778,-0.028175,-0.436743
18.495243,0.110099,-0.026011,-0.446332
18.515323,0.106896,-0.029215,-0.444220
18.515323,0.106896,-0.029215,-0.444220
18.525333,0.091965,-0.030214,-0.448538
18.535374,0.088774,-0.028068,-0.448537
18.545383,0.084495,-0.034466,-0.447511
18.555424,0.086654,-0.022711,-0.450654
18.575474,0.079150,-0.037633,-0.451814
18.595524,0.066345,-0.042926,-0.452942
18.595524,0.066345,-0.042926,-0.452942
18.605564,0.064216,-0.040773,-0.455074
18.615574,0.069549,-0.039727,-0.453986
18.625614,0.082323,-0.046181,-0.452913
18.635624,0.079136,-0.041894,-0.453970
18.645664,0.083420,-0.036589,-0.449660
18.665714,0.079139,-0.044060,-0.447571
18.675754,0.087675,-0.037655,-0.452858
18.685764,0.079146,-0.046237,-0.439036
18.695804,0.099406,-0.034484,-0.453879
18.705814,0.094089,-0.037737,-0.440022
18.715854,0.079150,-0.041940,-0.444356
18.735905,0.074863,-0.050469,-0.444409
18.735905,0.074863,-0.050469,-0.444409
18.745945,0.078076,-0.042989,-0.447569
18.755955,0.084494,-0.036617,-0.444316
18.765995,0.081261,-0.048344,-0.446517
18.776005,0.091934,-0.044117,-0.444331
18.786045,0.100475,-0.038805,-0.444283
18.806095,0.088757,-0.035553,-0.446436
18.816105,0.094052,-0.044084,-0.452871
18.826145,0.105806,-0.034520,-0.450657
18.836185,0.095139,-0.036612,-0.452833
18.846195,0.086587,-0.042966,-0.458227
18.856235,0.098367,-0.025948,-0.451705
18.876285,0.099401,-0.037698,-0.451758
18.886295,0.115412,-0.028134,-0.452737
18.896335,0.111139,-0.032397,-0.451700
18.906379,0.108990,-0.038797,-0.451737
18.916388,0.126062,-0.032450,-0.450591
18.926429,0.116452,-0.036671,-0.454911
18.946479,0.117513,-0.038815,-0.453850
18.946479,0.117513,-0.038815,-0.453850
18.956489,0.110080,-0.029185,-0.452756
18.966529,0.104766,-0.021671,-0.457008
18.976539,0.079140,-0.039753,-0.455028
18.986579,0.090925,-0.017365,-0.454890
18.996619,0.091973,-0.023776,-0.454917
19.016669,0.082368,-0.026933,-0.458163
19.026679,0.081323,-0.020532,-0.455999
19.036719,0.086653,-0.019477,-0.457048
19.046729,0.081315,-0.023741,-0.454946
19.056769,0.088788,-0.019494,-0.454906
19.066810,0.090938,-0.012020,-0.455933
19.086860,0.074916,-0.023705,-0.458169
19.086860,0.074916,-0.023705,-0.458169
19.096869,0.087744,-0.013098,-0.451674
19.106910,0.088787,-0.017338,-0.459168
19.116919,0.072792,-0.023724,-0.452834
19.126960,0.086653,-0.021633,-0.452785
19.137000,0.097313,-0.020594,-0.453819
19.157050,0.081329,-0.020553,-0.451727
19.167060,0.088801,-0.016305,-0.451686
19.177100,0.079173,-0.030162,-0.450710
19.187110,0.089848,-0.023789,-0.450650
19.197150,0.083462,-0.020565,-0.450653
19.207160,0.072787,-0.026938,-0.450712
19.227241,0.059993,-0.029037,-0.449689
19.227241,0.059993,-0.029037,-0.449689
19.237250,0.046135,-0.025753,-0.457190
19.247291,0.062160,-0.016229,-0.449623
19.257300,0.047187,-0.034330,-0.450818
19.267341,0.058916,-0.028998,-0.457170
19.277350,0.053580,-0.033268,-0.454000
19.307441,0.061043,-0.032224,-0.453974
19.317481,0.058930,-0.023658,-0.457144
19.327491,0.079188,-0.021593,-0.456010
19.337531,0.067417,-0.037564,-0.458255
19.347541,0.077072,-0.015174,-0.457054
19.357581,0.078121,-0.022663,-0.454950
19.367591,0.069577,-0.030121,-0.452873
19.377631,0.064243,-0.030088,-0.456092
19.387671,0.070690,-0.011959,-0.454920
19.397681,0.068513,-0.031201,-0.449676
19.407721,0.067457,-0.024764,-0.454990
19.417731,0.074933,-0.020527,-0.452812
19.437781,0.080253,-0.023748,-0.452813
19.447822,0.071739,-0.022683,-0.446422
19.457862,0.069628,-0.014122,-0.448524
19.467872,0.070662,-0.028029,-0.444314
19.477912,0.071750,-0.022718,-0.438945
19.487922,0.072817,-0.019492,-0.444268
19.507972,0.065357,-0.021624,-0.440026
19.518012,0.077069,-0.027012,-0.437882
19.528052,0.082446,-0.009948,-0.436718
19.538062,0.074950,-0.025968,-0.431474
19.548102,0.089893,-0.018546,-0.430329
19.558112,0.083497,-0.019598,-0.429284
19.578162,0.102679,-0.022884,-0.424973
19.588202,0.092018,-0.023918,-0.425008
19.598212,0.096295,-0.020743,-0.421776
19.608252,0.099488,-0.021816,-0.422841
19.618293,0.081356,-0.027102,-0.421848
19.628303,0.084563,-0.024987,-0.419692
19.638343,0.076031,-0.024944,-0.422920
19.648353,0.080298,-0.024968,-0.420772
19.658393,0.069634,-0.025991,-0.422943
19.668403,0.071756,-0.029202,-0.422952
19.678443,0.071764,-0.028149,-0.419743
19.688483,0.068571,-0.025998,-0.420810
19.698493,0.076028,-0.026012,-0.422925
19.718543,0.070688,-0.031344,-0.420829
19.728583,0.052556,-0.034474,-0.424099
19.738593,0.071783,-0.019590,-0.422907
19.748633,0.073877,-0.036714,-0.416573
19.758643,0.065359,-0.030249,-0.422975
19.768683,0.071760,-0.030290,-0.418685
19.778724,0.078159,-0.027092,-0.421856
19.788733,0.080287,-0.027088,-0.423987
19.798774,0.071739,-0.035609,-0.422983
19.808783,0.061101,-0.027021,-0.425108
19.818824,0.062160,-0.030233,-0.424052
19.828834,0.064289,-0.032386,-0.421920
19.838874,0.052554,-0.034469,-0.425167
19.858924,0.062162,-0.032394,-0.418721
19.868964,0.063233,-0.027028,-0.425102
19.878974,0.072843,-0.022808,-0.420783
19.889014,0.073877,-0.034558,-0.420835
19.899024,0.061093,-0.032381,-0.420860
19.909094,0.073900,-0.026015,-0.420795
19.929144,0.051482,-0.041986,-0.415591
19.939185,0.087783,-0.020761,-0.412186
19.949194,0.081353,-0.032477,-0.414396
19.959235,0.077078,-0.037813,-0.412296
19.969244,0.085634,-0.027161,-0.412222
19.979285,0.087742,-0.035712,-0.412257
19.989294,0.088852,-0.020774,-0.410047
19.999335,0.080291,-0.034640,-0.407999
20.009375,0.084575,-0.031490,-0.399427
20.019385,0.086724,-0.022934,-0.403653
20.029425,0.076046,-0.032531,-0.399456
20.039435,0.086721,-0.029387,-0.394070
20.049475,0.092039,-0.031525,-0.397270
20.069525,0.081397,-0.029385,-0.390880
20.079565,0.089942,-0.024088,-0.387627
20.089575,0.084606,-0.028357,-0.384457
20.099615,0.076085,-0.029423,-0.379145
20.109625,0.079298,-0.021943,-0.382305
20.119666,0.075022,-0.028351,-0.379143
20.129675,0.084634,-0.025214,-0.371624
20.139716,0.088875,-0.029464,-0.379110
20.149725,0.071841,-0.024085,-0.375926
20.159766,0.083567,-0.024128,-0.374826
20.169806,0.080355,-0.031613,-0.370598
20.179816,0.066510,-0.028369,-0.369552
20.189856,0.083577,-0.022007,-0.371611
20.209906,0.067569,-0.030504,-0.370628
20.219916,0.072908,-0.026244,-0.371661
20.229956,0.073977,-0.028414,-0.365259
20.239996,0.077163,-0.028389,-0.372728
20.250006,0.072892,-0.034813,-0.366360
20.260046,0.083567,-0.025206,-0.372695
20.270056,0.078225,-0.029455,-0.373798
20.280096,0.067568,-0.028347,-0.374890
20.290106,0.073976,-0.023024,-0.375916
20.300146,0.070766,-0.029436,-0.372750
20.310187,0.072888,-0.029412,-0.379153
20.320197,0.079276,-0.030491,-0.381277
20.330237,0.076114,-0.018744,-0.379094
20.350287,0.068594,-0.035766,-0.387741
20.360297,0.069671,-0.030419,-0.389849
20.370337,0.078191,-0.034734,-0.386641
20.380347,0.061117,-0.038920,-0.393118
20.390387,0.070758,-0.021869,-0.391942
20.400427,0.065392,-0.036818,-0.388823
20.420477,0.077102,-0.037889,-0.396273
20.430487,0.083536,-0.021875,-0.399384
20.440527,0.074967,-0.038950,-0.396284
20.450537,0.067484,-0.043162,-0.403802
20.460577,0.077104,-0.033587,-0.402662
20.470618,0.083508,-0.031482,-0.400498
20.480627,0.078145,-0.041050,-0.405899
20.490668,0.078160,-0.033560,-0.409068
20.500677,0.074999,-0.023968,-0.402623
20.510718,0.067470,-0.046350,-0.407022
20.520728,0.071751,-0.038879,-0.409111
20.530768,0.079238,-0.029292,-0.409045
20.540808,0.082409,-0.039991,-0.406951
20.560858,0.098406,-0.033610,-0.412217
20.570868,0.094155,-0.032559,-0.405815
20.580908,0.084539,-0.037837,-0.412276
20.590918,0.095219,-0.031479,-0.409011
20.600958,0.097349,-0.032559,-0.407942
20.610968,0.100543,-0.032560,-0.410070
20.621008,0.097352,-0.030413,-0.410069
20.631049,0.105883,-0.025071,-0.416429
20.641058,0.102687,-0.029373,-0.407913
20.651099,0.101621,-0.027213,-0.412178
20.661108,0.095233,-0.023984,-0.413249
20.671149,0.097355,-0.028267,-0.412195
20.681158,0.090942,-0.033576,-0.414374
20.701239,0.088825,-0.028230,-0.414355
20.711249,0.082427,-0.028199,-0.416509
20.721289,0.094178,-0.020781,-0.412168
20.731299,0.097370,-0.020777,-0.415364
20.741339,0.105908,-0.016533,-0.415321
20.751349,0.103767,-0.021881,-0.412147
20.771399,0.098447,-0.018659,-0.412147
20.781439,0.103784,-0.014395,-0.414248
20.791480,0.112314,-0.015511,-0.409957
20.801489,0.110172,-0.017625,-0.413177
20.811530,0.110185,-0.014436,-0.409958
20.821539,0.095241,-0.018624,-0.417496
20.831580,0.101641,-0.017582,-0.416405
20.841589,0.101653,-0.014388,-0.414254
20.851630,0.094166,-0.020746,-0.419646
20.861670,0.096292,-0.022889,-0.419650
20.871680,0.090946,-0.029279,-0.419695
20.881720,0.093143,-0.005797,-0.418510
20.891730,0.082428,-0.024970,-0.421835
20.911820,0.086707,-0.019649,-0.420729
20.921860,0.099479,-0.023942,-0.424987
20.931900,0.084534,-0.031359,-0.427200
20.941910,0.095226,-0.019651,-0.426047
20.951950,0.096285,-0.025020,-0.420728
20.961960,0.102664,-0.027146,-0.427130
20.982010,0.110147,-0.019700,-0.426006
20.992051,0.113314,-0.032540,-0.422853
21.002060,0.116490,-0.036792,-0.429274
21.012101,0.109118,-0.007964,-0.422749
21.022141,0.098383,-0.032462,-0.429303
21.032151,0.099476,-0.026088,-0.422861
21.042191,0.111205,-0.021834,-0.427081
21.052201,0.108009,-0.021829,-0.426022
21.062241,0.103739,-0.025024,-0.424981
21.072251,0.118665,-0.020780,-0.429192
21.082291,0.120825,-0.012259,-0.425941
21.092331,0.112283,-0.017566,-0.427058
21.102341,0.108015,-0.018615,-0.428143
21.122391,0.108024,-0.015411,-0.428128
21.132431,0.100566,-0.013241,-0.430275
21.142441,0.098428,-0.014292,-0.432422
21.142441,0.098428,-0.014292,-0.432422
21.162491,0.074966,-0.019555,-0.432512
21.172531,0.082453,-0.008890,-0.434577
21.182572,0.087777,-0.011048,-0.433504
21.192582,0.079235,-0.017433,-0.432490
21.202622,0.094166,-0.013205,-0.433497
21.212632,0.096284,-0.020707,-0.429254
21.222672,0.094182,-0.007870,-0.432403
21.232682,0.105887,-0.019696,-0.423881
21.242722,0.106936,-0.023956,-0.427103
21.252762,0.110150,-0.018632,-0.426001
21.262772,0.104809,-0.022886,-0.426036
21.272812,0.098402,-0.026059,-0.428205
21.282822,0.099490,-0.019670,-0.424967
21.292862,0.107995,-0.029324,-0.421785
21.302872,0.097316,-0.032453,-0.430375
21.312912,0.088815,-0.027121,-0.422895
21.332962,0.074917,-0.043100,-0.421941
21.343003,0.079202,-0.031331,-0.429351
21.353012,0.085601,-0.032445,-0.423998
21.363053,0.097308,-0.038891,-0.423996
21.373062,0.107986,-0.029294,-0.428194
21.383103,0.096255,-0.034621,-0.422910
21.393113,0.116518,-0.027186,-0.428160
21.403153,0.109055,-0.029308,-0.426054
21.413193,0.093047,-0.034575,-0.430396
21.413193,0.093047,-0.034575,-0.430396
21.423203,0.093113,-0.011086,-0.429217
21.443253,0.089858,-0.030283,-0.432521
21.443253,0.089858,-0.030283,-0.432521
21.453293,0.098403,-0.023908,-0.431399
21.483384,0.091984,-0.028118,-0.439983
21.493393,0.097313,-0.027058,-0.442099
21.493393,0.097313,-0.027058,-0.442099
21.513443,0.086653,-0.028096,-0.441066
21.523484,0.086660,-0.022731,-0.446381
21.553574,0.087729,-0.021667,-0.446373
21.563584,0.084532,-0.022734,-0.444251
21.573624,0.082381,-0.022667,-0.457075
21.583634,0.087754,-0.013128,-0.445265
21.593674,0.081329,-0.020553,-0.451727
21.603684,0.098398,-0.014195,-0.452718
21.603684,0.098398,-0.014195,-0.452718
21.623734,0.094111,-0.020569,-0.457033
21.623734,0.094111,-0.020569,-0.457033
21.633774,0.089861,-0.017366,-0.453824
21.643814,0.081327,-0.017313,-0.459189
21.653824,0.093058,-0.016299,-0.455947
21.663864,0.097327,-0.012021,-0.460188
21.683915,0.099460,-0.012033,-0.459114
21.683915,0.099460,-0.012033,-0.459114
21.693924,0.103706,-0.016303,-0.462327
21.703965,0.100466,-0.030161,-0.465606
21.714005,0.098408,-0.005612,-0.461223
21.724015,0.103712,-0.014167,-0.462317
21.734055,0.094072,-0.027989,-0.468818
21.744065,0.097332,-0.006651,-0.466572
21.754105,0.101549,-0.021600,-0.469835
21.764115,0.101523,-0.031212,-0.469881
21.774155,0.095174,-0.013026,-0.471949
21.784165,0.090909,-0.015158,-0.469834
21.794205,0.091944,-0.025836,-0.470950
21.804245,0.095133,-0.027977,-0.472020
21.824295,0.100483,-0.020519,-0.471970
21.824295,0.100483,-0.020519,-0.471970
21.834305,0.103667,-0.024796,-0.473049
21.844345,0.103676,-0.021592,-0.473034
21.854355,0.107974,-0.008791,-0.472962
21.864395,0.089814,-0.025834,-0.469888
21.874436,0.105814,-0.020541,-0.470887
21.904506,0.115398,-0.023781,-0.469807
21.904506,0.115398,-0.023781,-0.469807
21.914546,0.115426,-0.014175,-0.468694
21.924557,0.123962,-0.012077,-0.466524
21.934597,0.108985,-0.032319,-0.466661
21.944636,0.120745,-0.017391,-0.469762
21.964687,0.114358,-0.015239,-0.468702
21.964687,0.114358,-0.015239,-0.468702
21.974696,0.119701,-0.015302,-0.459073
21.984736,0.116468,-0.024873,-0.465537
21.994747,0.112219,-0.020597,-0.463392
22.004787,0.128235,-0.012121,-0.460103
22.014796,0.121810,-0.018467,-0.468696
22.044886,0.101551,-0.021605,-0.468767
22.044886,0.101551,-0.021605,-0.468767
22.054927,0.102630,-0.017342,-0.467676
22.064937,0.111152,-0.019511,-0.466594
22.074978,0.144228,-0.005730,-0.467506
22.084987,0.111174,-0.012040,-0.465491
22.105068,0.104813,0.000801,-0.466516
22.105068,0.104813,0.000801,-0.466516
22.115077,0.089831,-0.019426,-0.469858
22.125117,0.117574,-0.005613,-0.473988
22.135128,0.107971,-0.010937,-0.470835
22.145168,0.102638,-0.010904,-0.474055
22.155177,0.103715,-0.007714,-0.471900
22.185267,0.099452,-0.007700,-0.471912
22.185267,0.099452,-0.007700,-0.471912
22.195308,0.093013,-0.021542,-0.476268
22.205318,0.098376,-0.010896,-0.472998
22.215359,0.093045,-0.009795,-0.476212
22.225367,0.085539,-0.026863,-0.475246
22.245418,0.096208,-0.023699,-0.474133
22.245418,0.096208,-0.023699,-0.474133
22.255459,0.105803,-0.022662,-0.474102
22.265498,0.110038,-0.033360,-0.473072
22.275508,0.107929,-0.025883,-0.471974
22.285549,0.112233,-0.010946,-0.471892
22.295558,0.103638,-0.036553,-0.470969
22.325649,0.112186,-0.029110,-0.469842
22.325649,0.112186,-0.029110,-0.469842
22.335688,0.118599,-0.023802,-0.467662
22.345698,0.115383,-0.031272,-0.466638
22.355739,0.115401,-0.022713,-0.469802
22.365748,0.089800,-0.031179,-0.468845
22.395840,0.101532,-0.029086,-0.467734
22.395840,0.101532,-0.029086,-0.467734
22.405848,0.098335,-0.026925,-0.470938
22.415889,0.097283,-0.022654,-0.469852
22.425930,0.097308,-0.013038,-0.470875
22.435939,0.088732,-0.032243,-0.468853
22.455990,0.103694,-0.018419,-0.466610
22.455990,0.103694,-0.018419,-0.466610
22.466030,0.112192,-0.026975,-0.469831
22.476039,0.123940,-0.021703,-0.463365
22.486079,0.111145,-0.024876,-0.461279
22.496120,0.137803,-0.018540,-0.464380
22.506129,0.123944,-0.021714,-0.461228
22.536220,0.132483,-0.016397,-0.462248
22.536220,0.132483,-0.016397,-0.462248
22.546229,0.118607,-0.023827,-0.462321
22.556269,0.122900,-0.014240,-0.460128
22.566311,0.116449,-0.032353,-0.464504
22.576320,0.129302,-0.009974,-0.463294
22.606411,0.122895,-0.013146,-0.465464
22.606411,0.122895,-0.013146,-0.465464
22.616420,0.123921,-0.028106,-0.464463
22.626460,0.121828,-0.014216,-0.464403
22.636471,0.111104,-0.037671,-0.465612
22.646510,0.111162,-0.017390,-0.463380
22.656550,0.105779,-0.035512,-0.466685
22.666561,0.104693,-0.039755,-0.472049
22.676601,0.117568,-0.010983,-0.467604
22.686610,0.102569,-0.041925,-0.463519
22.696650,0.088692,-0.045043,-0.472118
22.706661,0.114320,-0.029122,-0.468767
22.716700,0.098333,-0.035534,-0.457092
22.746792,0.084442,-0.041841,-0.468910
22.746792,0.084442,-0.041841,-0.468910
22.756800,0.118568,-0.032320,-0.473044
22.766841,0.085522,-0.038656,-0.465688
22.776852,0.116461,-0.024853,-0.469810
22.786891,0.117518,-0.033445,-0.460233
22.806942,0.104755,-0.022714,-0.462354
22.806942,0.104755,-0.022714,-0.462354
22.816982,0.103722,-0.013120,-0.458039
22.826991,0.099452,-0.018471,-0.452735
22.837031,0.125054,-0.013239,-0.447298
22.847042,0.118676,-0.006811,-0.447286
22.857081,0.099487,-0.006734,-0.450543
22.877132,0.099490,-0.006744,-0.448407
22.877132,0.099490,-0.006744,-0.448407
22.887173,0.099509,-0.004648,-0.439851
22.897181,0.102714,-0.002528,-0.438764
22.907252,0.087783,-0.006756,-0.437757
22.917261,0.097363,-0.009981,-0.439882
22.927302,0.094206,0.001751,-0.434494
22.947352,0.093099,-0.013196,-0.434568
22.957392,0.094141,-0.022821,-0.432474
22.967402,0.099532,-0.002568,-0.428091
22.977442,0.102715,-0.008996,-0.425976
22.987452,0.098403,-0.028215,-0.423942
22.997492,0.109133,-0.004781,-0.418461
23.017542,0.110177,-0.013333,-0.417430
23.017542,0.110177,-0.013333,-0.417430
23.027552,0.117633,-0.014420,-0.418483
23.037592,0.112316,-0.015516,-0.408889
23.047632,0.116539,-0.028330,-0.412142
23.057642,0.126199,-0.005955,-0.407737
23.067683,0.112297,-0.025152,-0.403593
23.097742,0.129339,-0.033792,-0.395041
23.097742,0.129339,-0.033792,-0.395041
23.107783,0.142134,-0.036005,-0.387539
23.117823,0.132558,-0.029561,-0.388603
23.127833,0.117637,-0.030590,-0.386513
23.137873,0.109137,-0.026337,-0.376902
23.157923,0.102710,-0.038063,-0.376976
23.157923,0.102710,-0.038063,-0.376976
23.167933,0.087829,-0.026293,-0.371620
23.177973,0.086748,-0.030551,-0.373779
23.188013,0.076101,-0.027317,-0.372725
23.198023,0.071828,-0.032658,-0.369558
23.208063,0.070779,-0.026247,-0.369530
23.228113,0.048397,-0.028326,-0.366397
23.238123,0.049493,-0.021962,-0.357819
23.248164,0.044159,-0.024086,-0.356775
23.258173,0.050537,-0.030514,-0.356788
23.268214,0.044155,-0.027305,-0.353586
23.278254,0.051640,-0.020942,-0.349262
23.298304,0.053759,-0.026293,-0.348213
23.298304,0.053759,-0.026293,-0.348213
23.308314,0.060182,-0.018864,-0.342819
23.318354,0.066567,-0.025317,-0.337491
23.328364,0.070857,-0.015720,-0.337434
23.338404,0.053808,-0.012445,-0.340670
23.348444,0.070876,-0.009317,-0.336335
23.378504,0.061303,-0.002884,-0.335263
23.378504,0.061303,-0.002884,-0.335263
23.388544,0.047439,-0.007120,-0.333185
23.398554,0.068763,-0.006137,-0.329917
23.408594,0.060234,-0.003948,-0.335271
23.418604,0.049579,-0.001768,-0.337427
23.438685,0.050628,-0.007106,-0.338517
23.438685,0.050628,-0.007106,-0.338517
23.448695,0.050622,-0.007085,-0.342790
23.458735,0.044235,-0.006012,-0.339598
23.468745,0.038879,-0.014528,-0.341790
23.478785,0.040996,-0.018796,-0.343940
23.488795,0.041024,-0.009190,-0.342827
23.508875,0.043120,-0.018778,-0.349275
23.518885,0.034612,-0.011270,-0.350332
23.528925,0.034601,-0.013390,-0.353546
23.538935,0.027142,-0.011215,-0.356761
23.548975,0.029244,-0.021901,-0.356806
23.558985,0.030326,-0.015492,-0.357841
23.579066,0.038897,-0.000579,-0.355610
23.579066,0.038897,-0.000579,-0.355610
23.589075,0.035658,-0.014442,-0.357821
23.599116,0.032475,-0.008013,-0.359936
23.609125,0.031421,-0.004816,-0.357787
23.619166,0.037784,-0.017662,-0.355694
23.629175,0.050619,-0.001690,-0.354515
23.649226,0.066592,-0.010316,-0.348102
23.659266,0.070854,-0.012481,-0.344896
23.669306,0.079401,-0.006111,-0.342706
23.679316,0.087943,-0.004033,-0.336263
23.689356,0.094372,0.007688,-0.335122
23.699366,0.091137,-0.008340,-0.330934
23.719416,0.084817,0.018373,-0.329757
23.729456,0.062382,0.000301,-0.332041
23.739497,0.067743,0.008802,-0.326644
23.749506,0.069849,0.000257,-0.327747
23.759547,0.074187,0.026936,-0.326541
23.769556,0.093345,0.016185,-0.324402
23.779597,0.083741,0.014100,-0.328712
23.789606,0.067762,0.013049,-0.321283
23.799647,0.080592,0.026885,-0.320114
23.809687,0.083768,0.020477,-0.322272
23.819697,0.091232,0.019365,-0.317984
23.829737,0.095506,0.021472,-0.314757
23.839747,0.086987,0.023630,-0.313703
23.859797,0.100831,0.018235,-0.311553
23.869837,0.100828,0.017168,-0.311558
23.879847,0.104069,0.029947,-0.306148
23.889887,0.111475,0.011783,-0.309418
23.899927,0.090190,0.020371,-0.304095
23.909962,0.093395,0.021413,-0.300877
23.920002,0.082705,0.010778,-0.303093
23.930012,0.086983,0.012870,-0.296662
23.940053,0.088051,0.012861,-0.295591
23.950062,0.079521,0.008592,-0.290294
23.960103,0.090174,0.003188,-0.283880
23.970143,0.079526,0.006421,-0.282826
23.980153,0.066711,-0.005305,-0.278644
24.000203,0.082711,-0.006475,-0.267924
24.010243,0.067756,-0.019247,-0.266957
24.020253,0.058158,-0.021352,-0.266994
24.030293,0.048608,-0.011760,-0.256293
24.040303,0.045398,-0.013865,-0.260584
24.050343,0.042171,-0.028841,-0.253186
24.060383,0.041140,-0.019252,-0.247803
24.070393,0.048583,-0.027840,-0.243550
24.080433,0.049660,-0.025722,-0.240332
24.090443,0.042182,-0.033184,-0.238252
24.100483,0.051821,-0.018284,-0.233882
24.110493,0.065645,-0.031154,-0.231768
24.120533,0.053935,-0.024699,-0.233907
24.140584,0.035814,-0.027864,-0.229699
24.150624,0.027301,-0.022491,-0.230765
24.160634,0.030518,-0.016099,-0.229658
24.170674,0.005969,-0.026679,-0.234048
24.180684,0.014525,-0.017105,-0.231843
24.190724,0.004934,-0.017079,-0.230801
24.200764,-0.003600,-0.020260,-0.229772
24.210774,0.008149,-0.011760,-0.228631
24.220814,-0.000380,-0.011722,-0.230791
24.230824,-0.009959,-0.006346,-0.231860
24.240864,0.001769,-0.006400,-0.228623
24.250874,-0.013165,-0.011696,-0.227621
24.260914,0.002853,-0.002152,-0.224327
24.280964,0.015653,-0.000072,-0.221077
24.291005,0.001796,-0.003251,-0.216858
24.301014,0.027396,-0.000171,-0.208227
24.311055,-0.002447,0.003160,-0.214703
24.321064,0.020992,-0.005505,-0.205065
24.331105,0.019948,0.003047,-0.206096
24.341115,0.012495,0.001968,-0.198644
24.351155,0.044470,-0.000292,-0.194293
24.361195,0.013561,0.000886,-0.196510
24.371205,0.032763,0.000768,-0.184707
24.381245,0.045539,-0.007847,-0.178303
24.391255,0.013584,-0.000263,-0.179424
24.401295,0.042359,-0.006814,-0.168693
24.421345,0.028520,-0.003591,-0.163375
24.431386,0.044500,-0.006852,-0.162278
24.441395,0.067961,-0.009125,-0.149405
24.451436,0.048775,-0.007979,-0.152657
24.461445,0.051975,-0.011229,-0.145186
24.471486,0.069020,-0.015571,-0.141955
24.491536,0.067972,-0.021008,-0.120620
24.501545,0.081822,-0.018882,-0.128049
24.511586,0.092526,-0.005059,-0.122613
24.521626,0.065851,-0.014574,-0.124868
24.531636,0.067966,-0.024222,-0.118498
24.541676,0.079726,-0.013601,-0.114143
24.551686,0.085065,-0.008264,-0.117307
24.561726,0.039195,-0.024144,-0.115373
24.571736,0.069067,-0.016796,-0.108846
24.581776,0.081857,-0.013608,-0.114137
24.591816,0.029623,-0.016637,-0.115364
24.601826,0.037089,-0.018833,-0.107876
24.611866,0.053069,-0.025328,-0.100385
24.621876,0.047755,-0.013508,-0.112094
24.631917,0.032843,-0.011333,-0.109989
24.641926,0.038162,-0.023169,-0.095075
24.651967,0.020061,-0.015624,-0.097226
24.661976,0.037133,-0.004970,-0.103538
24.672017,-0.005530,-0.018735,-0.099448
24.682057,0.033927,-0.015705,-0.089710
24.702107,-0.006575,-0.006949,-0.106872
24.712117,-0.010844,-0.016612,-0.093043
24.722157,0.032861,-0.020008,-0.082256
24.732167,0.027547,-0.004959,-0.099291
24.742207,-0.007626,-0.006991,-0.097262
24.752247,-0.008697,-0.015591,-0.084487
24.772297,0.008413,0.005717,-0.085407
24.782307,-0.037477,-0.012254,-0.093096
24.792347,-0.039569,-0.005910,-0.078117
24.802357,-0.023576,-0.008133,-0.070606
24.812397,-0.016119,-0.001684,-0.084441
24.822438,-0.040640,-0.001579,-0.089850
24.832448,-0.037436,-0.010229,-0.069586
24.842488,-0.027841,-0.009192,-0.069554
24.852498,-0.026757,0.002597,-0.079109
24.862538,-0.024628,0.003673,-0.082303
24.872548,-0.052368,-0.011223,-0.074973
24.882588,-0.037436,-0.011307,-0.067454
24.892598,-0.011849,-0.004952,-0.073763
24.912714,-0.043846,-0.013392,-0.073891
24.922724,-0.016119,-0.010304,-0.068459
24.932764,-0.018262,-0.013490,-0.070616
24.942774,-0.018286,-0.018800,-0.077051
24.952814,-0.024635,-0.005999,-0.069530
24.962824,-0.031085,-0.026269,-0.069644
24.982905,-0.007637,-0.022038,-0.077037
24.992914,-0.034284,-0.019790,-0.082441
25.002955,-0.032148,-0.025197,-0.069642
25.012964,0.001924,-0.033821,-0.075998
25.023005,0.007256,-0.030615,-0.080241
25.033015,-0.003369,-0.017760,-0.081278
25.053095,-0.022597,-0.032638,-0.083538
25.063105,0.000851,-0.034871,-0.079210
25.073145,0.006229,-0.014577,-0.083372
25.083155,0.009433,-0.014608,-0.079091
25.093195,0.006200,-0.024178,-0.085554
25.103205,-0.004477,-0.027317,-0.092008
25.113245,-0.001258,-0.024164,-0.083438
25.113245,-0.001258,-0.024164,-0.083438
25.133295,-0.010841,-0.015544,-0.093038
25.143336,-0.006596,-0.024117,-0.089862
25.143336,-0.006596,-0.024117,-0.089862
25.163386,0.020072,-0.015660,-0.089749
25.173395,0.024341,-0.014616,-0.087595
25.193445,0.026425,-0.032782,-0.086607
25.203486,0.014719,-0.020952,-0.096198
25.213526,0.047797,-0.014717,-0.082190
25.213526,0.047797,-0.014717,-0.082190
25.223536,0.016869,-0.019941,-0.085505
25.243586,0.013647,-0.029547,-0.084491
25.253626,0.053097,-0.026492,-0.080095
25.253626,0.053097,-0.026492,-0.080095
25.263636,0.029642,-0.028546,-0.081237
25.273676,0.009425,-0.019968,-0.074843
25.283716,0.034986,-0.030765,-0.067346
25.293726,0.012549,-0.045598,-0.077092
25.303766,0.029637,-0.034994,-0.072722
25.313776,0.042412,-0.039298,-0.074844
25.333826,0.029652,-0.030733,-0.070566
25.333826,0.029652,-0.030733,-0.070566
25.353876,0.025381,-0.039313,-0.059936
25.353876,0.025381,-0.039313,-0.059936
25.363917,0.031742,-0.045691,-0.070630
25.373957,0.006167,-0.045618,-0.068564
25.383967,0.021136,-0.028585,-0.067374
25.404017,0.011548,-0.025334,-0.070590
25.404017,0.011548,-0.025334,-0.070590
25.414057,0.006241,-0.022154,-0.062044
25.424067,0.016913,-0.017927,-0.059858
25.434107,0.020103,-0.016834,-0.067322
25.444147,0.006256,-0.013585,-0.067344
25.454157,0.003060,-0.012502,-0.068416
25.484247,0.014800,-0.006127,-0.069422
25.484247,0.014800,-0.006127,-0.069422
25.494257,0.003081,-0.000719,-0.075838
25.504298,-0.005426,0.000326,-0.065174
25.514307,0.011630,0.005646,-0.072580
25.524348,0.004185,0.011004,-0.071507
25.544398,0.003086,0.000344,-0.074765
25.544398,0.003086,0.000344,-0.074765
25.554438,-0.000055,0.020640,-0.073609
25.564448,-0.000073,0.016388,-0.077902
25.574488,-0.000101,0.007860,-0.081147
25.584498,0.021262,0.019492,-0.071419
25.594538,-0.008600,0.018572,-0.082188
25.624628,-0.011818,0.007878,-0.076907
25.624628,-0.011818,0.007878,-0.076907
25.634638,0.014839,0.010985,-0.074682
25.644678,0.005235,0.012130,-0.084317
25.654688,0.006329,0.019576,-0.078938
25.664728,-0.021418,0.006856,-0.080143
25.684778,0.002005,-0.002836,-0.079056
25.684778,0.002005,-0.002836,-0.079056
25.694819,0.006260,-0.003903,-0.082254
25.704829,0.005179,-0.014624,-0.072693
25.714869,0.007293,-0.024268,-0.067392
25.724879,0.027571,-0.009342,-0.075811
25.734919,-0.020419,-0.014480,-0.085582
25.754969,0.042433,-0.035056,-0.068414
25.754969,0.042433,-0.035056,-0.068414
25.765009,0.043525,-0.026526,-0.066234
25.775019,0.005129,-0.031701,-0.074911
25.785059,0.021129,-0.031793,-0.066321
25.795069,0.029641,-0.038239,-0.064192
25.805109,0.015799,-0.033927,-0.063141
25.835200,0.026449,-0.039322,-0.058865
25.835200,0.026449,-0.039322,-0.058865
25.845209,0.005167,-0.027510,-0.057799
25.855250,-0.006550,-0.025341,-0.056753
25.865259,-0.007623,-0.026391,-0.059966
25.875300,0.019013,-0.029681,-0.059908
25.915407,0.050960,-0.037240,-0.064128
25.915407,0.050960,-0.037240,-0.064128
25.925447,0.010495,-0.025371,-0.062047
25.935457,0.076600,-0.024589,-0.046906
25.945497,-0.019333,-0.025320,-0.052516
25.955507,0.008375,-0.028634,-0.048182
25.965547,0.005236,-0.005109,-0.052352
25.975557,-0.009713,-0.014667,-0.053507
25.985597,-0.005458,-0.012499,-0.063099
25.995638,0.047862,-0.007383,-0.052245
26.005647,0.024350,-0.024338,-0.064141
26.015688,0.021167,-0.024374,-0.054536
26.035738,-0.045940,-0.009194,-0.056786
26.035738,-0.045940,-0.009194,-0.056786
26.045747,0.006311,-0.001909,-0.052334
26.055788,-0.006522,-0.014657,-0.057771
26.065828,0.023306,-0.014708,-0.067303
26.075838,0.027569,-0.020107,-0.057702
26.085878,0.047813,-0.023387,-0.055526
26.115938,0.018004,-0.009392,-0.058746
26.115938,0.018004,-0.009392,-0.058746
26.125978,0.014771,-0.017884,-0.067341
26.135988,0.000888,-0.023139,-0.075950
26.146028,0.027580,-0.015836,-0.057682
26.156068,0.015861,-0.013657,-0.058773
26.176118,0.037208,-0.001974,-0.059726
26.176118,0.037208,-0.001974,-0.059726
26.186128,0.006248,-0.020023,-0.060966
26.196169,-0.001211,-0.020004,-0.059918
26.206178,0.009513,0.003451,-0.058709
26.216219,-0.020374,-0.010315,-0.063130
26.226259,-0.002281,-0.014600,-0.072714
26.256319,-0.006494,-0.003973,-0.058788
26.256319,-0.006494,-0.003973,-0.058788
26.266359,0.016939,-0.011545,-0.054487
26.276369,-0.025683,-0.006051,-0.057783
26.286409,0.046753,-0.020170,-0.057650
26.296449,-0.001168,-0.005058,-0.058779
26.316499,0.023322,-0.013681,-0.058752
26.316499,0.023322,-0.013681,-0.058752
26.326509,-0.017159,-0.008225,-0.055633
26.336549,-0.004376,-0.002861,-0.069460
26.346559,0.040396,-0.005188,-0.059733
26.356599,-0.021442,-0.011379,-0.063138
26.366609,0.014846,0.000189,-0.050164
26.386690,0.029722,-0.018029,-0.047005
26.386690,0.029722,-0.018029,-0.047005
26.396700,0.019080,-0.010504,-0.050203
26.406740,-0.000044,0.008756,-0.044824
26.416750,0.032944,-0.008423,-0.048018
26.426790,0.058523,-0.005272,-0.054342
26.436800,-0.006473,-0.005116,-0.042771
26.456880,0.054279,-0.008553,-0.035141
26.456880,0.054279,-0.008553,-0.035141
26.466890,0.000972,-0.013709,-0.037450
26.476930,0.057518,0.006388,-0.035062
26.486940,0.029736,-0.022382,-0.029934
26.496980,0.025482,-0.013779,-0.039519
26.506990,0.039375,0.000059,-0.039415
26.537080,0.012731,-0.008474,-0.023506
26.537080,0.012731,-0.008474,-0.023506
26.547121,0.010533,-0.025493,-0.036411
26.557130,0.063893,-0.006499,-0.024423
26.567171,0.004176,-0.016974,-0.026774
26.577180,0.009483,-0.023384,-0.029994
26.597231,0.019083,-0.023440,-0.024627
26.597231,0.019083,-0.023440,-0.024627
26.607271,0.022283,-0.021305,-0.026745
26.617311,0.030868,-0.005359,-0.017031
26.627321,0.009513,-0.017017,-0.021418
26.637361,0.006303,-0.018044,-0.027841
26.647371,-0.029896,-0.007272,-0.022550
26.677461,0.024470,-0.011791,-0.007466
26.677461,0.024470,-0.011791,-0.007466
26.687502,-0.009698,-0.028717,-0.018322
26.697511,-0.034164,-0.008321,-0.023634
26.707552,0.079888,-0.009805,-0.013712
26.717561,-0.051310,-0.045674,-0.017449
26.737611,0.009482,-0.030920,-0.017211
26.747652,-0.034208,-0.031882,-0.009859
26.757692,0.078786,-0.026924,-0.006319
26.767702,0.014826,-0.027754,-0.012909
26.777742,0.020112,-0.048102,-0.004445
26.787752,0.011648,-0.024575,-0.005425
26.807802,0.038277,-0.029996,-0.006445
26.817842,-0.013974,-0.042667,-0.001309
26.827852,0.099049,-0.021645,-0.007306
26.837892,-0.040614,-0.038289,-0.005634
26.847932,0.025466,-0.039581,-0.003321
26.857942,0.023360,-0.032114,-0.000087
26.877992,0.063831,-0.045081,0.004236
26.877992,0.063831,-0.045081,0.004236
26.888033,-0.019304,-0.044801,0.001871
26.898042,-0.020343,-0.029801,-0.007675
26.908083,0.028710,-0.021427,-0.005363
26.918149,-0.044920,-0.053221,-0.006785
26.928159,-0.002179,-0.022465,0.009502
26.948209,-0.003293,-0.027695,-0.012959
26.958249,0.013765,-0.039614,0.011601
26.968259,-0.016120,-0.043693,-0.008797
26.978299,0.014881,-0.018234,0.006364
26.988339,-0.025669,-0.036257,0.006167
26.998349,0.007405,-0.016008,-0.007533
27.028439,0.017022,-0.011808,0.001059
27.028439,0.017022,-0.011808,0.001059
27.038449,0.018073,-0.014995,-0.003226
27.048489,-0.037339,-0.015923,0.005163
27.058499,-0.010666,-0.007481,0.008481
27.068539,0.026694,0.015917,0.003354
27.078580,-0.012818,-0.006331,-0.007543
27.088590,0.026634,-0.007592,0.006447
27.098630,-0.015981,-0.006432,0.015949
27.108640,-0.019174,0.003261,0.001031
27.118680,0.020241,-0.001113,-0.004222
27.128690,-0.067152,0.001316,-0.006589
27.138730,-0.000010,-0.011818,0.014899
27.158780,-0.012814,-0.009575,0.000988
27.168820,-0.039469,-0.014843,0.004094
27.178830,0.012787,-0.001109,0.000030
27.188870,-0.055508,-0.030785,-0.001367
27.198880,-0.011757,-0.012782,0.000975
27.208920,-0.045899,-0.033023,0.013604
27.228970,0.026528,-0.043882,0.002002
27.239011,-0.041692,-0.054405,0.015651
27.249020,0.001987,-0.059872,0.012541
27.259061,-0.049214,-0.070344,0.003804
27.269070,-0.011936,-0.085467,0.014518
27.279111,-0.012995,-0.079021,0.007068
27.299161,-0.008766,-0.095084,0.013413
27.299161,-0.008766,-0.095084,0.013413
27.309201,-0.010908,-0.092890,0.002735
27.319211,0.001828,-0.116462,0.010136
27.329251,-0.008792,-0.102544,0.010173
27.339261,0.007133,-0.128251,0.015436
27.349301,-0.015173,-0.099335,0.013375
27.369351,-0.012052,-0.124955,0.008990
27.379392,-0.048291,-0.125910,0.009953
27.389401,0.007167,-0.110046,0.004840
27.399442,-0.019482,-0.113178,0.007956
27.409451,-0.019507,-0.122795,0.008979
27.419492,-0.019432,-0.095024,0.008042
27.439542,-0.015199,-0.104639,0.005872
27.449551,-0.023730,-0.105674,0.004776
27.459592,-0.008742,-0.083311,0.008127
27.469632,-0.007652,-0.072620,0.004976
27.479642,-0.018286,-0.067276,0.011382
27.489682,-0.035328,-0.058637,0.002830
27.499692,-0.011885,-0.065161,0.011409
27.509732,-0.037396,-0.037287,0.006130
27.519742,0.005216,-0.048135,0.012605
27.529782,-0.030954,-0.019143,0.004097
27.539822,0.009584,-0.010776,0.013862
27.549832,-0.010681,-0.017128,0.015913
27.559872,-0.005308,0.004259,0.006415
27.579923,-0.020182,0.014931,0.018174
27.589932,0.008617,0.022308,0.019357
27.599973,-0.025496,0.026751,0.006465
27.610013,-0.014834,0.027779,0.007568
27.620023,-0.043556,0.041705,0.018237
27.630063,-0.014838,0.024560,0.010757
27.650113,-0.047794,0.042716,0.033185
27.660123,0.016125,0.042599,0.014133
27.670163,-0.031850,0.035259,0.018238
27.680173,-0.021206,0.034192,0.010785
27.690213,-0.011603,0.035204,0.016158
27.700253,-0.045732,0.026771,0.016023
27.710263,0.008652,0.034045,0.021549
27.720303,-0.023344,0.027756,0.018226
27.730313,-0.028658,0.032035,0.020368
27.740353,-0.003148,0.006317,0.021385
27.750363,-0.026572,0.016014,0.019230
27.760404,-0.010600,0.010623,0.019249
27.770444,-0.011678,0.003125,0.024551
27.790494,-0.003206,-0.016120,0.023416
27.800504,-0.013878,-0.019274,0.020167
27.810544,-0.012756,0.001013,0.020266
27.820554,-0.014954,-0.020313,0.014818
27.830594,-0.025646,-0.033099,0.015796
27.840634,-0.022424,-0.023493,0.014782
27.860684,-0.028853,-0.040599,0.023229
27.860684,-0.028853,-0.040599,0.023229
27.870694,0.003128,-0.034260,0.015870
27.880734,-0.004350,-0.042799,0.020082
27.890744,-0.022442,-0.033129,0.020077
27.900784,0.000968,-0.044937,0.016882
27.910842,-0.029928,-0.041643,0.018948
27.930923,-0.004381,-0.048088,0.009374
27.930923,-0.004381,-0.048088,0.009374
27.940932,-0.000117,-0.054566,0.021106
27.950973,0.006284,-0.049221,0.015808
27.960983,-0.010769,-0.054551,0.025349
27.971023,-0.012935,-0.064130,0.019957
27.981033,0.009472,-0.056743,0.023258
28.001113,0.000940,-0.054544,0.015768
28.011123,-0.001173,-0.051363,0.022186
28.021163,-0.019296,-0.056674,0.028520
28.031173,-0.011884,-0.064088,0.010346
28.041213,-0.003307,-0.045961,0.010456
28.051223,-0.024620,-0.046980,0.014665
28.081313,-0.042767,-0.053293,0.007107
28.091354,0.010502,-0.065249,0.014675
28.101363,-0.018206,-0.040598,0.015781
28.111404,-0.010845,-0.074776,0.011367
28.121413,-0.003290,-0.040632,0.012617
28.131454,-0.007571,-0.052410,0.022164
28.141463,-0.011890,-0.065146,0.008205
28.151504,0.021226,-0.041794,0.015884
28.161544,-0.019272,-0.047058,0.027498
28.171554,-0.002324,-0.055399,-0.026974
28.181594,0.013773,-0.047181,0.030793
28.191604,-0.027904,-0.045618,-0.045158
28.201644,0.021242,-0.036460,0.016978
28.211654,-0.020349,-0.051326,0.027475
28.221694,-0.004494,-0.048807,-0.064336
28.231734,0.030851,-0.034390,0.024491
28.241744,-0.022450,-0.025563,0.000885
28.251785,0.043526,-0.067462,0.008347
28.261794,-0.006484,-0.039553,0.012614
28.281844,0.030773,-0.055688,0.011572
28.291885,-0.010728,-0.032059,0.011569
28.301925,0.006273,-0.051342,0.012593
28.311935,-0.009706,-0.050237,0.015759
28.321975,-0.003305,-0.048122,0.015786
28.331985,-0.014986,-0.033138,0.016893
28.352035,-0.027776,-0.025555,0.003007
28.352035,-0.027776,-0.025555,0.003007
28.362075,-0.019339,-0.054387,-0.003515
28.372085,-0.025605,-0.009528,-0.000116
28.382125,-0.042761,-0.044694,-0.004602
28.392165,-0.023481,-0.011666,-0.001188
28.402175,-0.041576,-0.005220,0.003065
28.432265,-0.055517,-0.035067,0.000749
28.442275,-0.055548,-0.041429,-0.008895
28.452316,-0.038428,-0.012615,-0.016189
28.462356,-0.042728,-0.030796,-0.007741
28.472366,-0.050222,-0.039285,-0.014211
28.492416,-0.048076,-0.038259,-0.006723
28.502456,-0.028892,-0.036165,-0.010933
28.512466,-0.027761,-0.018065,-0.000162
28.522506,-0.027753,-0.014856,-0.001215
28.532516,-0.020314,-0.024507,0.001964
28.542556,-0.020312,-0.020205,-0.004425
28.562606,-0.023473,-0.008462,-0.001173
28.572646,-0.023526,-0.025529,-0.005527
28.582656,-0.034182,-0.024421,-0.006619
28.592696,-0.049071,-0.014782,-0.002342
28.602706,-0.039584,-0.046795,-0.014218
28.612746,-0.044875,-0.035051,-0.009904
28.632796,-0.033151,-0.035089,-0.009872
28.642837,-0.023567,-0.038324,-0.009860
28.652847,-0.027851,-0.045785,-0.009907
28.662887,-0.039531,-0.024343,-0.019452
28.672897,-0.032157,-0.060717,-0.011058
28.682937,-0.041719,-0.047856,-0.014228
28.702987,-0.031042,-0.040410,-0.015232
28.713027,-0.026745,-0.029760,-0.011965
28.723037,-0.039588,-0.051092,-0.008897
28.733077,-0.021421,-0.032991,-0.009829
28.743087,-0.035300,-0.041489,-0.009908
28.753127,-0.035284,-0.032921,-0.015208
28.773177,0.103461,0.003723,0.045169
28.783218,0.010265,-0.046189,-0.176445
28.793227,0.014675,-0.005732,-0.152741
28.803268,0.008436,-0.028826,-0.007591
28.813277,-0.026906,-0.060487,-0.063385
28.823318,-0.028887,-0.032952,-0.013054
28.843368,-0.019364,-0.041379,-0.044046
28.853408,-0.030002,-0.050025,-0.015275
28.863418,-0.014033,-0.043558,-0.038701
28.873458,-0.012917,-0.046952,0.000810
28.873458,-0.012917,-0.046952,0.000810
28.893508,-0.000147,-0.044777,-0.016235
28.903518,-0.007584,-0.041595,-0.006627
28.913567,-0.003348,-0.028596,-0.048214
28.933617,0.002156,0.006380,0.004309
28.943658,0.028617,-0.046986,-0.020439
28.943658,0.028617,-0.046986,-0.020439
28.953667,0.000967,-0.027699,-0.015083
28.963708,0.001970,-0.024271,-0.063134
28.993767,-0.016074,-0.028757,-0.005522
28.993767,-0.016074,-0.028757,-0.005522
29.003808,-0.001248,-0.029580,-0.067441
29.013848,0.019095,-0.021325,-0.020344
29.023858,0.020193,-0.009581,-0.020286
29.033898,0.012693,-0.001889,-0.060862
29.063958,-0.010798,-0.036148,-0.026906
29.063958,-0.010798,-0.036148,-0.026906
29.073998,-0.003320,0.004707,-0.089717
29.084038,-0.000115,-0.008255,-0.060928
29.094048,0.003026,-0.005932,-0.102568
29.104088,-0.003378,0.000582,-0.120715
29.134148,0.010450,0.008164,-0.152687
29.134148,0.010450,0.008164,-0.152687
29.144189,0.010372,-0.005592,-0.179458
29.154229,0.013555,-0.023869,-0.156035
29.164239,0.016796,0.016915,-0.200698
29.174279,0.015759,0.012520,-0.174016
29.204339,0.017773,-0.011892,-0.207241
29.204339,0.017773,-0.011892,-0.207241
29.214379,0.012287,-0.022150,-0.292761
29.224389,0.026224,0.008786,-0.294713
29.234429,0.016610,-0.012658,-0.270272
29.244469,0.044272,-0.007206,-0.312898
29.264519,-0.004569,-0.014097,-0.177403
29.264519,-0.004569,-0.014097,-0.177403
29.274529,-0.010806,-0.007036,-0.085520
29.284569,0.003021,-0.015609,-0.088727
29.294579,-0.009766,-0.012344,-0.093020
29.304619,0.006144,-0.038006,-0.097370
29.314660,-0.008678,-0.000570,-0.099371
29.334710,0.009368,-0.029483,-0.095185
29.344720,-0.012994,-0.014393,-0.109062
29.354760,0.031724,-0.029475,-0.112214
29.364770,0.009390,-0.010164,-0.115389
29.374810,0.013543,-0.042145,-0.130484
29.384850,-0.005509,-0.001567,-0.116458
29.414910,-0.005535,-0.006871,-0.123961
29.414910,-0.005535,-0.006871,-0.123961
29.424950,0.035939,-0.028259,-0.146380
29.434960,0.007264,0.002754,-0.135630
29.445000,0.013558,-0.023879,-0.153898
29.455010,0.018891,-0.028218,-0.143222
29.485100,0.001929,0.010328,-0.152700
29.485100,0.001929,0.010328,-0.152700
29.495141,0.023098,-0.034518,-0.168877
29.505150,0.017840,-0.015334,-0.157051
29.515191,0.022039,-0.029150,-0.174196
29.525200,0.034830,-0.033504,-0.165635
29.545281,0.025305,-0.002447,-0.177265
29.555291,0.030552,-0.025903,-0.189112
29.565331,0.011333,-0.045119,-0.177506
29.575341,0.016734,-0.014126,-0.185890
29.585381,0.020902,-0.042923,-0.196697
29.595391,0.003922,-0.022633,-0.184897
29.615471,0.001755,-0.032207,-0.191358
29.625481,0.019825,-0.010568,-0.262776
29.635522,0.045381,-0.026736,-0.248895
29.645531,0.011366,-0.020450,-0.199821
29.655572,0.020829,-0.012530,-0.300170
29.665581,0.061341,-0.014854,-0.288318
29.695672,0.035786,-0.021310,-0.260646
29.695672,0.035786,-0.021310,-0.260646
29.705712,0.010217,-0.033110,-0.231931
29.715722,0.017656,0.003560,-0.312921
29.725762,0.046389,-0.026557,-0.287347
29.735772,0.046341,-0.030713,-0.311936
29.755822,0.014482,-0.024510,-0.246833
29.765862,0.022877,-0.023045,-0.336533
29.775902,0.102907,-0.010681,-0.295661
29.785912,0.045345,-0.023391,-0.278789
29.795952,0.059161,-0.012539,-0.324633
29.805962,0.048589,-0.023548,-0.247803
29.826012,0.079430,-0.043903,-0.255291
29.826012,0.079430,-0.043903,-0.255291
29.836053,0.036857,-0.028869,-0.243587
29.846093,0.077353,-0.012830,-0.275446
29.856103,0.066722,-0.018267,-0.247728
29.866143,0.051730,-0.042771,-0.250021
29.876153,0.092277,-0.010733,-0.277531
29.896203,0.073081,-0.030025,-0.249902
29.906243,0.087023,0.006280,-0.258237
29.916271,0.090154,-0.020449,-0.254082
29.926311,0.090164,-0.016172,-0.255130
29.936351,0.088032,-0.016165,-0.255136
29.946361,0.078499,-0.000160,-0.245473
29.966411,0.091234,-0.019420,-0.246597
29.976451,0.064624,-0.006518,-0.246610
29.986461,0.091304,0.008367,-0.250738
29.996501,0.090176,-0.018363,-0.243390
30.006542,0.070008,0.015912,-0.250761
30.016551,0.101973,0.012604,-0.250689
30.036602,0.081661,-0.012986,-0.245525
30.046642,0.094497,0.004059,-0.245409
30.056652,0.076466,0.032927,-0.239981
30.066692,0.080629,-0.000162,-0.246535
30.076732,0.084869,-0.009798,-0.244433
30.086742,0.078523,0.009456,-0.246496
30.106792,0.067853,0.003068,-0.243351
30.116832,0.068893,-0.005474,-0.244456
30.126842,0.066695,-0.031107,-0.242447
30.136882,0.061443,-0.000095,-0.247656
30.146892,0.060349,-0.011854,-0.244510
30.156932,0.062445,-0.022520,-0.248828
30.176982,0.048572,-0.027804,-0.251027
30.187023,0.035790,-0.027788,-0.245722
30.197032,0.026200,-0.016992,-0.263857
30.207073,0.067769,-0.020366,-0.256280
30.217083,0.041085,-0.041698,-0.243636
30.227123,0.018716,-0.025511,-0.263918
30.247173,0.034700,-0.032016,-0.254290
30.257213,0.038953,-0.029843,-0.264950
30.267223,0.066680,-0.029984,-0.254192
30.277263,0.027236,-0.029825,-0.260710
30.287273,0.053881,-0.029912,-0.260637
30.297313,0.060301,-0.024628,-0.253116
30.317363,0.066661,-0.036386,-0.255291
30.327404,0.040038,-0.024522,-0.261718
30.337413,0.046371,-0.045891,-0.263938
30.347454,0.052846,-0.019234,-0.259521
30.357463,0.049580,-0.040552,-0.266040
30.367504,0.049611,-0.030956,-0.262790
30.377513,0.051732,-0.032005,-0.268130
30.387554,0.045311,-0.042674,-0.266062
30.397594,0.034682,-0.030882,-0.268172
30.407604,0.064467,-0.051265,-0.269254
30.417644,0.044257,-0.038399,-0.266044
30.427654,0.063447,-0.034169,-0.270244
30.437694,0.060245,-0.036300,-0.269195
30.457744,0.064477,-0.045910,-0.272433
30.457744,0.064477,-0.045910,-0.272433
30.467784,0.054912,-0.031960,-0.279871
30.477794,0.058087,-0.039441,-0.280966
30.487834,0.042140,-0.025511,-0.279876
30.497844,0.060263,-0.018044,-0.290473
30.507885,0.068760,-0.035214,-0.278780
30.527935,0.071998,-0.010576,-0.296814
30.537944,0.053856,-0.024446,-0.287316
30.547985,0.016555,-0.015715,-0.301265
30.558025,0.077355,0.005476,-0.307406
30.568035,0.035711,-0.023228,-0.306588
30.578075,0.031464,-0.009260,-0.321489
30.608135,0.050656,-0.003963,-0.325684
30.608135,0.050656,-0.003963,-0.325684
30.618175,0.042123,-0.008222,-0.322523
30.628215,0.009079,-0.002714,-0.335407
30.638225,0.053837,-0.007151,-0.331031
30.648265,0.037858,0.003646,-0.344911
30.668315,0.038925,0.005793,-0.348103
30.678325,0.038869,-0.011263,-0.354593
30.688365,0.037777,-0.024105,-0.348247
30.698406,0.027179,0.004824,-0.360958
30.708416,0.038800,-0.030435,-0.365366
30.718456,0.028166,-0.021857,-0.365355
30.748516,0.036706,-0.014389,-0.369568
30.748516,0.036706,-0.014389,-0.369568
30.758556,0.046273,-0.016496,-0.382371
30.768566,0.047291,-0.036815,-0.377123
30.778606,0.026050,-0.010053,-0.375987
30.788646,0.061112,-0.031364,-0.410173
30.818706,0.070674,-0.015143,-0.459208
30.818706,0.070674,-0.015143,-0.459208
30.828746,0.056685,-0.039448,-0.504227
30.838756,0.077946,-0.026419,-0.563926
30.848796,0.071507,-0.023027,-0.599179
30.858837,0.047936,-0.030097,-0.668711
30.878887,0.072264,-0.039287,-0.774441
30.888896,0.050923,-0.027289,-0.812899
30.898937,0.043416,-0.015270,-0.865205
30.908947,0.060336,-0.049372,-0.892025
30.919041,0.086824,-0.062967,-0.971064
30.929081,0.095331,-0.030618,-1.042458
30.949131,0.015286,-0.049399,-1.081223
30.959141,-0.035594,0.041450,-1.061706
30.969181,-0.180215,0.100131,-0.950734
30.979191,-0.056597,-0.005793,-0.768229
30.989231,-0.012724,-0.015106,-0.635694
30.999241,0.002353,-0.031806,-0.502204
31.019322,0.005620,-0.012649,-0.490354
31.029331,0.093928,-0.069542,-0.489311
31.039372,0.059899,-0.044899,-0.482879
31.049381,0.019406,-0.026476,-0.511746
31.059422,0.140783,-0.081416,-0.494579
31.069431,-0.031685,-0.008211,-0.500050
31.089512,0.166388,-0.063268,-0.510445
31.089512,0.166388,-0.063268,-0.510445
31.099522,-0.046602,0.000442,-0.512869
31.109562,0.090687,-0.061854,-0.532012
31.119572,0.117383,-0.050254,-0.519065
31.129612,-0.035965,0.005858,-0.536315
31.139622,0.121590,-0.067324,-0.525543
31.159702,0.054551,-0.018968,-0.542591
31.169712,0.083247,-0.047891,-0.543717
31.179752,-0.005146,-0.020890,-0.547038
31.189762,0.079048,-0.022226,-0.547880
31.199803,0.083294,-0.026497,-0.551093
31.209812,0.014016,-0.031652,-0.542763
31.229862,0.107824,-0.020164,-0.552064
31.239903,0.054520,-0.035027,-0.534122
31.249943,0.087657,0.003336,-0.539190
31.259953,0.162163,-0.036445,-0.533831
31.269993,0.071677,-0.005252,-0.518978
31.280003,0.132322,-0.030968,-0.542433
31.300053,0.098347,0.010741,-0.531648
31.310093,0.215402,-0.059080,-0.526313
31.320133,0.113215,-0.012837,-0.524241
31.330143,0.130277,-0.014001,-0.515653
31.340183,0.181359,-0.040855,-0.517776
31.350193,0.118588,0.001009,-0.519887
31.370243,0.133465,-0.015059,-0.519922
31.380283,0.115282,-0.035260,-0.526477
31.390324,0.156826,-0.042866,-0.527467
31.400334,0.089739,-0.020211,-0.529681
31.410374,0.125904,-0.044876,-0.532903
31.420384,0.142965,-0.042806,-0.530709
31.430424,0.069453,-0.030804,-0.534060
31.440434,0.141834,-0.060906,-0.541480
31.450474,0.108807,-0.060839,-0.533026
31.460484,0.049186,-0.032839,-0.541604
31.470524,0.157810,-0.063079,-0.544651
31.480564,0.109892,-0.047977,-0.543644
31.490574,0.059767,-0.054176,-0.553426
31.510624,0.094961,-0.045742,-0.554357
31.520664,0.082096,-0.072394,-0.555587
31.530674,0.119457,-0.047922,-0.561777
31.540714,0.104529,-0.053239,-0.556502
31.550755,0.069317,-0.061612,-0.568389
31.560764,0.146076,-0.058698,-0.559618
31.580814,0.078913,-0.059502,-0.569421
31.590855,0.131160,-0.056514,-0.559649
31.600865,0.046955,-0.051908,-0.572678
31.610905,0.138574,-0.074703,-0.557578
31.620945,0.099221,-0.040361,-0.566070
31.630955,0.095940,-0.071325,-0.565157
31.651005,0.093867,-0.048882,-0.567193
31.661045,0.114035,-0.084235,-0.557691
31.671055,0.090642,-0.061712,-0.561922
31.681095,0.108760,-0.065000,-0.556546
31.691105,0.100266,-0.055381,-0.552251
31.701145,0.114086,-0.066085,-0.556536
31.721195,0.106639,-0.061794,-0.555469
31.731236,0.150312,-0.080172,-0.538343
31.741245,0.081152,-0.028610,-0.554314
31.751286,0.165228,-0.076971,-0.547901
31.761295,0.104561,-0.047955,-0.544727
31.771336,0.096029,-0.047907,-0.549023
31.791386,0.096062,-0.035087,-0.550030
31.801426,0.137594,-0.051271,-0.543583
31.811436,0.146123,-0.048075,-0.547817
31.821476,0.098164,-0.044695,-0.552206
31.831486,0.155706,-0.050231,-0.549937
31.841526,0.138669,-0.043763,-0.551022
31.861576,0.169563,-0.045974,-0.556288
31.871616,0.142945,-0.039511,-0.549922
31.881626,0.138699,-0.029855,-0.556297
31.891667,0.169552,-0.053480,-0.549914
31.901676,0.123781,-0.028739,-0.556333
31.911717,0.159974,-0.045953,-0.554178
31.931768,0.126959,-0.035152,-0.557423
31.941808,0.135494,-0.030897,-0.559515
31.951818,0.138666,-0.037290,-0.564878
31.961858,0.098188,-0.031844,-0.559623
31.971868,0.103513,-0.027539,-0.570270
31.981908,0.145037,-0.044776,-0.567032
32.001958,0.123717,-0.043619,-0.571359
32.011998,0.127992,-0.042590,-0.566001
32.022008,0.041706,-0.021984,-0.573619
32.032048,0.155642,-0.062956,-0.569225
32.042058,0.110968,-0.032933,-0.563866
32.052098,0.054472,-0.033798,-0.568299
32.062108,0.187598,-0.070545,-0.567037
32.072148,0.108797,-0.045726,-0.567137
32.082189,0.079998,-0.053103,-0.568320
32.092199,0.192973,-0.055627,-0.563746
32.102239,0.113011,-0.061744,-0.570406
32.112249,0.103436,-0.059612,-0.562945
32.122289,0.137530,-0.062917,-0.565002
32.142339,0.116186,-0.073532,-0.564043
32.152349,0.103443,-0.053169,-0.570392
32.162389,0.139622,-0.072495,-0.573588
32.172429,0.127942,-0.060745,-0.566087
32.182439,0.063949,-0.066859,-0.584452
32.192479,0.164172,-0.064071,-0.564934
32.202489,0.113005,-0.062802,-0.572547
32.212529,0.110777,-0.096959,-0.574851
32.222539,0.157827,-0.045896,-0.564866
32.232579,0.117237,-0.076719,-0.568328
32.242620,0.161933,-0.102505,-0.566190
32.252629,0.137545,-0.055426,-0.568172
32.262670,0.149182,-0.084273,-0.573617
32.282720,0.104481,-0.059550,-0.576828
32.292730,0.150243,-0.089647,-0.567230
32.302770,0.130013,-0.076720,-0.576839
32.312810,0.134295,-0.068175,-0.579991
32.322820,0.120420,-0.079918,-0.571539
32.332860,0.133223,-0.068152,-0.584267
32.352910,0.064991,-0.073249,-0.588752
32.362920,0.181194,-0.065109,-0.583052
32.372960,0.072481,-0.063672,-0.586550
32.382970,0.111871,-0.076585,-0.592912
32.393010,0.144914,-0.078859,-0.586422
32.403051,0.060763,-0.059342,-0.590835
32.413060,0.164109,-0.070337,-0.594874
32.423101,0.150236,-0.082085,-0.585354
32.433110,0.059705,-0.053979,-0.595085
32.443151,0.198154,-0.090724,-0.598081
32.453160,0.126796,-0.073415,-0.596060
32.453160,0.126796,-0.073415,-0.596060
32.473241,0.187558,-0.068262,-0.598004
32.503301,0.160902,-0.069218,-0.603423
32.513341,0.106581,-0.058378,-0.600318
32.523351,0.124665,-0.070179,-0.601392
32.533391,0.160893,-0.071344,-0.605570
32.543431,0.125762,-0.061664,-0.596007
32.553441,0.142792,-0.063800,-0.607721
32.553441,0.142792,-0.063800,-0.607721
32.573491,0.095949,-0.047654,-0.602433
32.583532,0.156649,-0.063850,-0.606614
32.583532,0.156649,-0.063850,-0.606614
32.603582,0.102340,-0.045508,-0.608814
32.613591,0.143827,-0.074477,-0.608836
32.623632,0.109796,-0.046595,-0.609867
32.633672,0.126880,-0.037055,-0.606570
32.643682,0.130006,-0.055154,-0.620534
32.653722,0.167311,-0.061744,-0.607643
32.663732,0.057580,-0.039988,-0.616389
32.673772,0.185366,-0.080990,-0.615162
32.683782,0.107667,-0.037979,-0.623719
32.713872,0.085277,-0.042188,-0.621664
32.713872,0.085277,-0.042188,-0.621664
32.723912,0.148137,-0.050941,-0.620464
32.733922,0.175837,-0.060693,-0.609751
32.743962,0.057571,-0.038885,-0.623861
32.753972,0.190747,-0.058550,-0.621450
32.784063,0.191792,-0.067107,-0.619351
32.784063,0.191792,-0.067107,-0.619351
32.794103,0.112991,-0.036903,-0.629040
32.804113,0.155527,-0.076596,-0.620564
32.814153,0.123632,-0.042273,-0.630104
32.824163,0.125697,-0.070076,-0.623821
32.854253,0.128908,-0.065820,-0.622723
32.854253,0.128908,-0.065820,-0.622723
32.864293,0.142778,-0.059447,-0.624791
32.874303,0.144880,-0.071211,-0.622705
32.884343,0.100187,-0.045436,-0.622706
32.894353,0.165172,-0.056326,-0.622578
32.924495,0.191818,-0.057496,-0.619306
32.924495,0.191818,-0.057496,-0.619306
32.934536,0.117226,-0.052987,-0.618422
32.944545,0.138556,-0.044482,-0.624732
32.954586,0.199270,-0.065031,-0.611843
32.964596,0.086403,-0.022995,-0.616229
32.994686,0.080003,-0.022959,-0.619451
32.994686,0.080003,-0.022959,-0.619451
33.004726,0.167283,-0.065965,-0.618345
