time_tick,gyr_X_value,gyr_Y_value,gyr_Z_value
0.013134,-0.005399,-0.026691,0.001995
0.013134,-0.005399,-0.026691,0.001995
0.023144,-0.010730,-0.026669,0.000912
0.033184,-0.008594,-0.024535,-0.000140
0.043194,-0.001142,-0.027763,-0.000134
0.053234,-0.008595,-0.026686,0.003055
0.063244,-0.002235,-0.035214,-0.004446
0.073284,-0.007513,-0.020277,0.002020
0.083324,-0.009661,-0.024526,-0.001211
0.093334,0.000994,-0.026707,0.000945
0.103374,-0.011784,-0.022393,0.000930
0.113384,-0.001136,-0.027783,0.004138
0.123424,-0.009648,-0.021338,0.002009
0.133434,0.002076,-0.020298,-0.000090
0.143474,-0.006456,-0.023484,0.002007
0.153484,-0.009655,-0.024546,0.003062
0.163525,-0.008584,-0.023487,0.004138
0.173534,-0.007516,-0.020266,-0.000117
0.193584,-0.006453,-0.022416,0.002013
0.193584,-0.006453,-0.022416,0.002013
0.203625,-0.003258,-0.024572,0.004148
0.213634,-0.007520,-0.023485,0.003073
0.223675,-0.002192,-0.021347,-0.001175
0.233684,-0.006449,-0.021353,0.003086
0.243725,-0.012848,-0.022395,0.001995
0.253765,0.002074,-0.023522,0.004167
0.263775,-0.014978,-0.021315,0.000926
0.273815,-0.001123,-0.021360,0.000964
0.283825,-0.004325,-0.022413,-0.000118
0.293865,-0.009655,-0.024546,0.003062
0.303875,-0.004318,-0.022433,0.004155
0.313915,-0.006446,-0.019207,0.000960
0.323925,-0.005390,-0.023487,0.002010
0.333965,-0.005392,-0.023482,0.000942
0.343975,-0.004327,-0.025637,0.004140
0.354015,-0.011781,-0.021326,0.000935
0.364025,-0.002190,-0.021352,-0.000107
0.374065,-0.005392,-0.023482,0.000942
0.384075,-0.009649,-0.022411,0.003072
0.394115,-0.003260,-0.025645,0.005211
0.404125,-0.011776,-0.020263,0.002008
0.414165,-0.000054,-0.020296,0.000972
0.424206,-0.005393,-0.023477,-0.000126
0.434215,-0.009649,-0.022411,0.003072
0.444256,-0.001125,-0.024584,0.005222
0.454266,-0.010715,-0.021329,0.000938
0.464306,-0.004322,-0.022423,0.002018
0.474316,-0.007516,-0.021344,0.002015
0.484356,-0.003261,-0.025640,0.004143
0.494366,-0.008586,-0.022404,0.000938
0.504406,-0.000060,-0.022432,0.000962
0.514416,-0.005389,-0.023492,0.003079
0.524456,-0.012852,-0.024536,0.003053
0.534466,-0.001127,-0.024579,0.004153
0.544506,-0.010710,-0.020266,0.002011
0.554516,-0.002190,-0.022430,0.002024
0.564556,-0.002180,-0.018153,0.000976
0.574566,-0.009655,-0.024546,0.003062
0.584606,-0.005388,-0.024570,0.005210
0.594646,-0.007512,-0.018125,-0.001175
0.604656,-0.003253,-0.021358,0.002026
0.614696,-0.007519,-0.022412,0.002010
0.624706,-0.003263,-0.025635,0.003074
0.634746,-0.011776,-0.021341,0.004139
0.644756,0.001001,-0.023498,-0.000108
0.654797,-0.006454,-0.023489,0.003076
0.664806,-0.009649,-0.022411,0.003072
0.674847,0.001008,-0.023518,0.004164
0.684856,-0.014985,-0.024524,0.001979
0.694897,-0.001127,-0.022423,-0.000109
0.704906,-0.005387,-0.022419,0.002015
0.714947,-0.007526,-0.026699,0.005194
0.724956,-0.003261,-0.025640,0.004143
0.734997,-0.010719,-0.022392,-0.000136
0.745006,-0.004320,-0.022428,0.003087
0.755047,-0.009652,-0.022400,0.000936
0.765087,-0.005396,-0.026701,0.004132
0.775097,-0.005384,-0.022429,0.004152
0.785137,-0.003253,-0.020280,-0.000105
0.785137,-0.003253,-0.020280,-0.000105
0.805187,-0.006449,-0.020275,0.000954
0.815197,0.001002,-0.025654,0.004154
0.825237,-0.022436,-0.020223,0.000911
0.835247,0.006335,-0.021374,-0.001152
0.845287,-0.002193,-0.023498,0.002019
0.855297,-0.013915,-0.023465,0.003055
0.865337,-0.002191,-0.024581,0.005219
0.875347,-0.014975,-0.020247,0.000931
0.885387,-0.008582,-0.021341,0.002012
0.895397,-0.004323,-0.022418,0.000950
0.905437,-0.008593,-0.026691,0.004123
0.915447,-0.011784,-0.022393,0.000930
0.925487,-0.000051,-0.019228,0.000977
0.935528,-0.004324,-0.024569,0.004145
0.945537,-0.009659,-0.025609,0.001989
0.955578,-0.002189,-0.024586,0.006287
0.965588,-0.007521,-0.022407,0.000941
0.975628,-0.001121,-0.020287,-0.000099
0.985638,-0.006452,-0.022421,0.003081
0.995678,-0.005394,-0.025628,0.003068
1.005688,-0.004323,-0.024574,0.005213
1.015754,-0.011784,-0.022393,0.000930
1.025764,-0.005384,-0.021351,0.002021
1.035804,-0.006456,-0.023484,0.002007
1.045814,-0.007523,-0.024553,0.003068
1.055854,-0.003260,-0.024567,0.003079
1.065864,-0.005380,-0.019210,0.000962
1.075904,-0.001133,-0.025637,0.002012
1.085914,-0.008589,-0.023472,0.000933
1.095954,-0.003254,-0.022431,0.003090
1.105994,-0.016035,-0.019186,0.003070
1.116004,-0.005380,-0.020288,0.003094
1.126044,-0.007517,-0.022417,0.003078
1.136054,-0.006452,-0.021343,0.000949
1.146094,-0.004323,-0.023496,0.003082
1.156104,-0.012835,-0.017050,0.000952
1.166145,-0.004310,-0.018151,0.002039
1.176154,-0.008582,-0.021341,0.002012
1.186195,-0.004311,-0.019224,0.003102
1.196204,-0.006444,-0.021368,0.006290
1.206245,-0.013908,-0.020256,0.002002
1.216254,-0.014972,-0.020257,0.003067
1.226295,-0.007525,-0.023470,-0.000132
1.236304,-0.010719,-0.023470,0.001996
1.246345,-0.005387,-0.022419,0.002015
1.256354,-0.005383,-0.021356,0.003089
1.266395,-0.008586,-0.022404,0.000938
1.276435,-0.004331,-0.024548,-0.000128
1.286445,-0.002188,-0.023513,0.005224
1.306495,-0.006453,-0.022416,0.002013
1.316535,-0.004336,-0.026684,-0.000138
1.326545,-0.013916,-0.024538,0.004118
1.336585,0.004212,-0.020320,0.003120
1.346595,-0.010712,-0.021339,0.003074
1.356635,-0.009653,-0.023473,0.001999
1.366645,-0.001127,-0.023501,0.002022
1.376685,-0.004324,-0.024569,0.004145
1.386695,-0.005384,-0.021351,0.002021
1.396735,-0.004321,-0.023501,0.004150
1.406745,-0.007522,-0.023480,0.002005
1.416785,-0.013921,-0.024522,0.000914
1.426795,-0.003251,-0.022441,0.005226
1.436835,-0.007521,-0.022407,0.000941
1.446876,-0.003262,-0.024562,0.002011
1.456886,-0.004326,-0.024564,0.003076
1.466926,-0.004327,-0.024559,0.002008
1.476936,-0.007516,-0.022422,0.004146
1.486976,-0.008586,-0.022404,0.000938
1.496986,-0.004324,-0.024569,0.004145
1.507026,-0.008586,-0.022404,0.000938
1.517036,0.001005,-0.023508,0.002028
1.527076,-0.012851,-0.023463,0.001990
1.537086,-0.006458,-0.023479,0.000939
1.547126,-0.006453,-0.022416,0.002013
1.557136,-0.005392,-0.023482,0.000942
1.567176,-0.004314,-0.020292,0.003097
1.577186,-0.006456,-0.023484,0.002007
1.587226,-0.008591,-0.024545,0.001997
1.597236,-0.007522,-0.023480,0.002005
1.607276,-0.005395,-0.024550,0.000937
1.617316,-0.004320,-0.022428,0.003087
1.627326,-0.003262,-0.024562,0.002011
1.637366,-0.006461,-0.024547,0.000934
1.647376,-0.006459,-0.024552,0.002002
1.657417,-0.004323,-0.023496,0.003082
1.667426,-0.009648,-0.021338,0.002009
1.677467,-0.006456,-0.023484,0.002007
1.687476,-0.002193,-0.023498,0.002019
1.697517,-0.005393,-0.024555,0.002005
1.707526,-0.003263,-0.025635,0.003074
1.717567,-0.008583,-0.021336,0.000944
1.727576,-0.006456,-0.023484,0.002007
1.737617,-0.009650,-0.022405,0.002004
1.747626,-0.000064,-0.025651,0.004151
1.757667,-0.009648,-0.021338,0.002009
1.767677,-0.003248,-0.020295,0.003100
1.777717,-0.005392,-0.024560,0.003074
1.787757,-0.009656,-0.024541,0.001994
1.797767,-0.004318,-0.022433,0.004155
1.807807,-0.010710,-0.021344,0.004142
1.817817,-0.009653,-0.023473,0.001999
1.827857,-0.002190,-0.022430,0.002024
1.837867,-0.009653,-0.024551,0.004130
1.847907,-0.002194,-0.024571,0.003082
1.857917,-0.009653,-0.023473,0.001999
1.867957,-0.004330,-0.025627,0.002003
1.877967,-0.008586,-0.023482,0.003070
1.888007,-0.002202,-0.026701,0.002004
1.898017,-0.007520,-0.023485,0.003073
1.908057,-0.007522,-0.022402,-0.000127
1.918067,-0.004330,-0.026705,0.004135
1.928107,-0.008595,-0.025608,0.000923
1.938117,-0.006450,-0.022426,0.004149
1.948157,-0.007522,-0.023480,0.002005
1.958198,-0.011785,-0.023466,0.001993
1.968208,-0.002193,-0.023498,0.002019
1.978248,-0.003260,-0.024567,0.003079
1.988258,-0.007517,-0.022417,0.003078
1.998298,-0.011772,-0.018122,0.000950
2.008308,-0.003260,-0.024567,0.003079
2.018374,-0.009653,-0.023473,0.001999
2.028384,-0.002194,-0.024571,0.003082
2.038424,-0.010710,-0.020266,0.002011
2.048434,-0.005389,-0.022414,0.000947
2.058474,-0.003254,-0.022431,0.003090
2.068484,-0.008593,-0.026691,0.004123
2.078524,-0.001125,-0.023506,0.003090
2.088534,-0.008582,-0.021341,0.002012
2.098574,-0.003263,-0.025635,0.003074
2.108584,-0.011780,-0.022404,0.003066
2.118624,0.003132,-0.025656,0.003092
2.128664,-0.008586,-0.023482,0.003070
2.138674,-0.007521,-0.022407,0.000941
2.148714,-0.007528,-0.025616,0.001994
2.158724,-0.010722,-0.023460,-0.000141
2.168765,-0.003261,-0.025640,0.004143
2.178774,-0.010716,-0.022402,0.002001
2.188815,-0.003260,-0.024567,0.003079
2.198824,-0.006454,-0.023489,0.003076
2.208865,-0.011792,-0.025597,0.000915
2.218874,-0.006447,-0.020280,0.002023
2.228915,-0.004319,-0.021355,0.002023
2.238924,-0.009655,-0.023468,0.000931
2.248965,-0.008585,-0.022409,0.002007
2.258974,-0.003254,-0.022431,0.003090
2.269015,-0.009649,-0.022411,0.003072
2.279025,-0.003260,-0.023489,0.000948
2.289065,-0.003256,-0.022426,0.002021
2.299075,-0.016044,-0.022390,0.003054
2.309115,0.002066,-0.025652,0.003089
2.319155,-0.007520,-0.023485,0.003073
2.329165,-0.010719,-0.023470,0.001996
2.339205,-0.002196,-0.024566,0.002014
2.349215,-0.010721,-0.024543,0.003059
2.359255,-0.002188,-0.022435,0.003092
2.369265,-0.002194,-0.024571,0.003082
2.379305,-0.006452,-0.022421,0.003081
2.389315,-0.010716,-0.022402,0.002001
2.399355,-0.002197,-0.025639,0.003077
2.409365,-0.005389,-0.023492,0.003079
2.419405,-0.006457,-0.024557,0.003071
2.429415,-0.002191,-0.023503,0.003087
2.439455,-0.007525,-0.024548,0.002000
2.449465,-0.000058,-0.022437,0.002030
2.459505,-0.009646,-0.020265,0.000946
2.469515,-0.007521,-0.022407,0.000941
2.479556,-0.001126,-0.022428,0.000959
2.489596,-0.005393,-0.024555,0.002005
2.499606,-0.004311,-0.019224,0.003102
2.509646,-0.003253,-0.021358,0.002026
2.519656,-0.009649,-0.022411,0.003072
2.529696,-0.001121,-0.021365,0.002032
2.539706,0.004198,-0.025659,0.003095
2.549746,-0.008579,-0.020273,0.002017
2.559756,-0.004324,-0.023491,0.002013
2.569796,-0.004327,-0.024559,0.002008
2.579806,-0.011783,-0.023472,0.003061
2.589846,-0.002190,-0.023508,0.004156
2.599856,-0.007511,-0.020282,0.003088
2.609896,-0.007522,-0.023480,0.002005
2.619906,-0.004317,-0.021360,0.003092
2.629946,-0.005387,-0.022419,0.002015
2.639956,-0.005384,-0.022429,0.004152
2.649996,-0.003248,-0.020295,0.003100
2.660037,-0.003256,-0.022426,0.002021
2.670046,-0.009648,-0.021338,0.002009
2.680087,0.001006,-0.022435,0.000965
2.690096,-0.007510,-0.020287,0.004156
2.700137,-0.006450,-0.021348,0.002018
2.710146,-0.002194,-0.023493,0.000951
2.720187,-0.006455,-0.022411,0.000944
2.730196,-0.002185,-0.021367,0.003098
2.740237,-0.006455,-0.022411,0.000944
2.750246,-0.012849,-0.022390,0.000927
2.760287,-0.006449,-0.020275,0.000954
2.770297,-0.008588,-0.023477,0.002002
2.780337,-0.009643,-0.020275,0.003082
2.790347,-0.007519,-0.021334,-0.000122
2.800387,-0.007525,-0.024548,0.002000
2.800387,-0.007525,-0.024548,0.002000
2.820437,0.001010,-0.021372,0.002038
2.830477,-0.008577,-0.020278,0.003085
2.840487,-0.002186,-0.020289,0.000966
2.840487,-0.002186,-0.020289,0.000966
2.860537,-0.007519,-0.022412,0.002010
2.870577,-0.000046,-0.019243,0.004182
2.880587,-0.005387,-0.022419,0.002015
2.890627,-0.006453,-0.022416,0.002013
2.900637,-0.006444,-0.019212,0.002028
2.910677,-0.005381,-0.021361,0.004157
2.910677,-0.005381,-0.021361,0.004157
2.920687,-0.005377,-0.019221,0.003099
2.930727,-0.005386,-0.022424,0.003084
2.940737,-0.010709,-0.020271,0.003079
2.960787,-0.009641,-0.020292,0.003097
2.970828,-0.007510,-0.019209,0.002025
2.970828,-0.007510,-0.019209,0.002025
2.990878,-0.010712,-0.021339,0.003074
3.000918,-0.009647,-0.022416,0.004140
3.000918,-0.009647,-0.022416,0.004140
3.010928,-0.003247,-0.019222,0.002037
3.020964,-0.008576,-0.020283,0.004153
3.030974,-0.002187,-0.021362,0.002029
3.051024,-0.005389,-0.022414,0.000947
3.051024,-0.005389,-0.022414,0.000947
3.071074,-0.003256,-0.022426,0.002021
3.071074,-0.003256,-0.022426,0.002021
3.091124,-0.010713,-0.021334,0.002006
3.091124,-0.010713,-0.021334,0.002006
3.101164,-0.005377,-0.018143,0.000968
3.121214,-0.005384,-0.021351,0.002021
3.121214,-0.005384,-0.021351,0.002021
3.131224,-0.006444,-0.019212,0.002028
3.141264,-0.007514,-0.021349,0.003083
3.151274,-0.001114,-0.019234,0.003111
3.161314,-0.007518,-0.021339,0.000946
3.171355,-0.003250,-0.020290,0.002031
3.191405,-0.005387,-0.022419,0.002015
3.201414,-0.007509,-0.019214,0.003093
3.201414,-0.007509,-0.019214,0.003093
3.211455,-0.004319,-0.021355,0.002023
3.221464,-0.009647,-0.022416,0.004140
3.231505,-0.005386,-0.021346,0.000952
3.241514,-0.003242,-0.018160,0.003110
3.261564,-0.006454,-0.023489,0.003076
3.261564,-0.006454,-0.023489,0.003076
3.271605,-0.011787,-0.023461,0.000925
3.281615,-0.004319,-0.021355,0.002023
3.291655,-0.003253,-0.021358,0.002026
3.301665,-0.007518,-0.021339,0.000946
3.311705,-0.006457,-0.024557,0.003071
3.331755,-0.001123,-0.021360,0.000964
3.331755,-0.001123,-0.021360,0.000964
3.341795,-0.011780,-0.019174,-0.002260
3.351805,-0.008586,-0.022404,0.000938
3.361845,-0.009649,-0.021332,0.000941
3.371855,-0.003253,-0.020280,-0.000105
3.381895,-0.002189,-0.021357,0.000961
3.401945,-0.010715,-0.022407,0.003069
3.401945,-0.010715,-0.022407,0.003069
3.411955,-0.004325,-0.022413,-0.000118
3.421995,-0.002187,-0.020284,-0.000102
3.432005,-0.002192,-0.021347,-0.001175
3.442045,-0.011787,-0.023461,0.000925
3.452055,-0.009657,-0.023463,-0.000138
3.472105,-0.002192,-0.021347,-0.001175
3.472105,-0.002192,-0.021347,-0.001175
3.482146,-0.009656,-0.024541,0.001994
3.492155,-0.008598,-0.025598,-0.001213
3.502196,-0.011774,-0.018117,-0.000118
3.512236,0.002073,-0.020287,-0.002227
3.522246,-0.013916,-0.021308,-0.001207
3.542296,-0.012845,-0.020249,-0.000131
3.542296,-0.012845,-0.020249,-0.000131
3.552336,-0.007514,-0.018120,-0.002243
3.562346,-0.008585,-0.021331,-0.000125
3.572386,-0.008591,-0.024545,0.001997
3.582396,-0.014975,-0.019169,-0.001200
3.592436,0.005272,-0.020303,-0.001150
3.602446,-0.012848,-0.021317,-0.000136
3.612486,-0.006453,-0.022416,0.002013
3.622496,-0.010712,-0.019183,-0.001189
3.632536,0.004210,-0.018158,-0.002211
3.642546,-0.011784,-0.021315,-0.001202
3.652586,-0.010709,-0.019193,0.000948
3.662596,-0.005380,-0.018132,-0.001169
3.682677,-0.000064,-0.023494,-0.000111
3.682677,-0.000064,-0.023494,-0.000111
3.692686,-0.021364,-0.017013,-0.001208
3.702727,0.001010,-0.019216,-0.002225
3.712736,-0.016041,-0.019166,-0.001203
3.722777,-0.010712,-0.019183,-0.001189
3.732786,-0.002192,-0.020269,-0.003307
3.752836,0.004200,-0.022435,-0.001163
3.752836,0.004200,-0.022435,-0.001163
3.762877,-0.021375,-0.020211,-0.002291
3.772887,0.001008,-0.019211,-0.003293
3.782927,-0.012848,-0.020239,-0.002268
3.792937,-0.018166,-0.015950,-0.002262
3.802977,0.010600,-0.019242,-0.003266
3.812987,-0.021367,-0.018080,-0.001213
3.823027,-0.011774,-0.017039,-0.002250
3.833037,0.009537,-0.020322,-0.000070
3.843077,-0.024574,-0.021274,-0.001237
3.853117,-0.019223,-0.012743,-0.002250
3.863127,0.021249,-0.021402,-0.005384
3.873167,-0.027775,-0.023404,-0.000187
3.893217,0.015950,-0.012862,-0.001085
3.893217,0.015950,-0.012862,-0.001085
3.903227,-0.021366,-0.018086,-0.000145
3.913267,-0.011768,-0.014903,-0.002239
3.923277,-0.000047,-0.017087,-0.000081
3.933317,-0.020302,-0.017006,-0.003341
3.943327,-0.011771,-0.015971,-0.002245
3.953367,-0.002177,-0.016007,-0.001150
3.963377,-0.006439,-0.014920,-0.002225
3.973418,-0.009653,-0.020244,-0.003327
3.983427,-0.017088,-0.011682,-0.002239
3.993468,-0.008572,-0.015986,-0.001168
4.003477,0.005270,-0.020298,-0.002218
4.013558,-0.018167,-0.017023,-0.001199
4.033608,0.006342,-0.018165,-0.002205
4.033608,0.006342,-0.018165,-0.002205
4.043648,-0.019233,-0.017019,-0.001202
4.053658,-0.006444,-0.013827,-0.007561
4.063698,-0.005370,-0.014934,-0.000085
4.073708,-0.014960,-0.011678,-0.004369
4.083748,0.001005,-0.018123,-0.007560
4.103798,-0.011758,-0.008470,-0.007550
4.103798,-0.011758,-0.008470,-0.007550
4.113808,0.003141,-0.018145,-0.004350
4.123848,-0.021369,-0.016997,-0.004412
4.133858,-0.008570,-0.010606,-0.009688
4.143898,0.002089,-0.013875,-0.003265
4.153908,-0.019239,-0.016999,-0.005475
4.163948,-0.012843,-0.014869,-0.008652
4.173958,-0.003234,-0.012800,-0.001138
4.183998,-0.009632,-0.012769,-0.003292
4.194039,-0.004324,-0.018106,-0.007575
4.204048,-0.018162,-0.015960,-0.000126
4.214089,0.001023,-0.013871,-0.003267
4.224098,0.004205,-0.018143,-0.005415
4.234139,-0.018176,-0.020227,-0.001214
4.244148,-0.006443,-0.012754,-0.008624
4.254189,0.012739,-0.017118,-0.002182
4.264198,-0.030963,-0.018039,-0.003376
4.274239,0.001009,-0.017060,-0.006487
4.284249,0.004221,-0.014960,-0.001127
4.294289,-0.016049,-0.020218,-0.004413
4.304299,-0.006457,-0.019172,-0.006518
4.314339,-0.002192,-0.021347,-0.001175
4.324349,-0.008589,-0.019165,-0.006524
4.334389,-0.005393,-0.019170,-0.007583
4.344399,-0.005400,-0.023457,-0.004399
4.354439,-0.000070,-0.021323,-0.007579
4.364479,0.003126,-0.022407,-0.006507
4.374489,-0.000080,-0.024522,-0.008662
4.384529,0.002055,-0.024539,-0.006520
4.394539,0.007379,-0.024541,-0.009710
4.404579,-0.006477,-0.024496,-0.009748
4.414589,-0.002215,-0.025583,-0.008673
4.424629,0.006305,-0.025590,-0.012922
4.434639,-0.008611,-0.025557,-0.009759
4.454689,0.005241,-0.024514,-0.013988
4.454689,0.005241,-0.024514,-0.013988
4.464729,-0.010749,-0.026608,-0.011906
4.474739,-0.002230,-0.027688,-0.015092
4.484780,-0.004357,-0.025541,-0.016156
4.494789,-0.005418,-0.026630,-0.010823
4.504830,-0.003298,-0.027680,-0.016163
4.524880,-0.001154,-0.023415,-0.016137
4.524880,-0.001154,-0.023415,-0.016137
4.534920,-0.012888,-0.028732,-0.012990
4.544930,-0.008622,-0.026600,-0.015105
4.554970,0.009491,-0.028794,-0.015065
4.564980,-0.027805,-0.026542,-0.014089
4.575020,0.004160,-0.028772,-0.016148
4.595070,-0.024600,-0.024422,-0.013002
4.595070,-0.024600,-0.024422,-0.013002
4.605080,0.006298,-0.027721,-0.014001
4.615120,-0.021409,-0.025490,-0.015135
4.625130,-0.010745,-0.023389,-0.015095
4.635170,-0.009686,-0.026601,-0.014039
4.645180,-0.015011,-0.025521,-0.012981
4.665230,-0.017144,-0.025509,-0.014055
4.665230,-0.017144,-0.025509,-0.014055
4.675270,-0.008607,-0.022338,-0.012948
4.685280,-0.004353,-0.024478,-0.015083
4.695320,-0.013941,-0.022306,-0.016167
4.705330,-0.000085,-0.023429,-0.013998
4.715370,-0.012875,-0.022309,-0.016164
4.725411,-0.003289,-0.024476,-0.016148
4.735420,-0.003280,-0.022350,-0.014002
4.745461,-0.007555,-0.025530,-0.016165
4.755470,-0.000090,-0.022335,-0.019334
4.765511,-0.005407,-0.019124,-0.017197
4.775520,-0.000093,-0.024481,-0.017207
4.785561,-0.012877,-0.022304,-0.017233
4.805611,-0.004342,-0.016972,-0.021457
4.805611,-0.004342,-0.016972,-0.021457
4.815621,-0.003292,-0.023388,-0.020416
4.825661,0.003099,-0.021242,-0.026797
4.835671,0.002050,-0.016982,-0.023575
4.845711,-0.001161,-0.021239,-0.024673
4.855721,-0.004353,-0.018014,-0.026803
4.875771,-0.003289,-0.018013,-0.027868
4.885811,0.002043,-0.016962,-0.027848
4.895851,-0.002223,-0.016938,-0.029996
4.905861,-0.003289,-0.015857,-0.032131
4.915901,0.007370,-0.015896,-0.031033
4.925911,-0.007556,-0.019062,-0.028953
4.945961,-0.005419,-0.015855,-0.031068
4.945961,-0.005419,-0.015855,-0.031068
4.956001,0.010567,-0.014829,-0.033156
4.966011,-0.000099,-0.019076,-0.031069
4.976052,-0.006496,-0.016894,-0.036417
4.986061,0.002025,-0.019058,-0.036404
4.996102,-0.002237,-0.019049,-0.035347
5.026163,-0.005444,-0.020086,-0.039634
5.036203,-0.007566,-0.019031,-0.035362
5.046212,-0.002247,-0.022248,-0.036431
5.056253,-0.009713,-0.023286,-0.037524
5.066294,-0.009702,-0.019009,-0.038572
5.076303,-0.003322,-0.024370,-0.038580
5.086343,-0.017162,-0.022219,-0.032199
5.096354,0.002005,-0.024382,-0.039634
5.106393,-0.005458,-0.026504,-0.037528
5.116403,-0.004383,-0.024382,-0.035378
5.126444,0.007327,-0.028686,-0.036435
5.136454,-0.006531,-0.029709,-0.036478
5.156503,0.003068,-0.027610,-0.035373
5.156503,0.003068,-0.027610,-0.035373
5.166544,0.004125,-0.028661,-0.039648
5.176554,-0.000135,-0.027579,-0.039655
5.186593,0.000940,-0.025457,-0.037505
5.196603,0.010528,-0.024400,-0.041747
5.206644,-0.006528,-0.027563,-0.038604
5.216653,0.003058,-0.025423,-0.046045
5.226693,0.009467,-0.022255,-0.042808
5.236735,0.009459,-0.023308,-0.046017
5.246743,-0.003329,-0.023272,-0.044984
5.256784,0.006254,-0.024350,-0.049236
5.266793,0.002005,-0.017919,-0.051353
5.276835,0.007335,-0.015785,-0.054533
5.296884,0.004124,-0.017885,-0.059893
5.296884,0.004124,-0.017885,-0.059893
5.306895,-0.004378,-0.012548,-0.053482
5.316935,0.004141,-0.011478,-0.059863
5.326944,-0.002263,-0.015734,-0.058832
5.336984,-0.005461,-0.015723,-0.058841
5.346995,-0.002261,-0.011432,-0.065221
5.357034,0.022263,-0.009391,-0.061939
5.367044,-0.009724,-0.016788,-0.056722
5.377085,-0.005469,-0.014620,-0.066314
5.387095,0.005213,-0.010423,-0.057718
5.397134,0.011606,-0.008283,-0.063032
5.407174,0.010526,-0.015775,-0.058797
5.417185,0.004136,-0.013614,-0.059873
5.437234,-0.001183,-0.011476,-0.056673
5.447275,0.019059,-0.011516,-0.061958
5.457285,0.007339,-0.011488,-0.059854
5.467324,0.013745,-0.007237,-0.059816
5.477334,0.016927,-0.012582,-0.060901
5.487376,-0.003304,-0.007192,-0.057727
5.497384,0.019061,-0.009365,-0.065153
5.507425,0.006285,-0.007213,-0.059837
5.517435,0.023339,-0.008351,-0.056590
5.527476,0.007338,-0.007176,-0.068379
5.537484,0.019075,-0.005103,-0.062996
5.547525,0.009488,-0.004009,-0.061949
5.557535,0.019062,-0.007214,-0.068347
5.567575,0.015878,-0.002937,-0.067267
5.577615,0.012675,-0.002911,-0.070481
5.587626,0.027591,-0.005096,-0.070450
5.597666,0.006277,-0.001802,-0.074766
5.607675,0.031843,-0.006152,-0.075784
5.617715,0.014775,-0.010358,-0.077988
5.627726,0.017983,-0.006092,-0.079027
5.637765,0.026500,-0.007167,-0.083281
5.647775,0.009452,-0.007127,-0.080124
5.657816,0.032887,-0.008241,-0.086473
5.667826,0.023287,-0.010341,-0.087578
5.677865,0.016892,-0.009242,-0.089727
5.687875,0.021158,-0.008188,-0.089710
5.697916,0.019016,-0.010301,-0.092931
5.707925,0.037131,-0.010350,-0.095017
5.717965,0.025411,-0.010322,-0.092913
5.727975,0.017948,-0.008137,-0.098265
5.738016,0.042465,-0.008227,-0.096061
5.748056,0.009427,-0.010280,-0.090821
5.758065,0.033931,-0.009252,-0.099294
5.768107,0.039272,-0.007153,-0.094996
5.778115,0.016892,-0.007086,-0.093990
5.788156,0.029691,-0.001772,-0.097134
5.798166,0.039277,-0.007168,-0.091792
5.808207,0.009433,-0.007066,-0.092942
5.818216,0.036080,-0.005007,-0.094995
5.828256,0.037161,-0.001827,-0.090704
5.838267,0.011591,0.001460,-0.090759
5.848307,0.046743,-0.003979,-0.093892
5.858316,0.033983,0.004586,-0.089614
5.868356,0.024380,0.001418,-0.090724
5.878367,0.040359,-0.001837,-0.090695
5.888406,0.028658,0.006744,-0.090687
5.898416,0.029720,0.004600,-0.089626
5.908457,0.051010,-0.000774,-0.097070
5.928506,0.039297,0.001385,-0.093888
5.938546,0.035016,0.000377,-0.103518
5.948557,0.039304,0.005672,-0.097072
5.958596,0.029688,-0.000684,-0.101401
5.968606,0.048852,-0.003915,-0.108841
5.978647,0.015838,0.003653,-0.105692
5.988657,0.029669,-0.002780,-0.109957
5.998697,0.033911,-0.007035,-0.116375
6.008706,0.025397,-0.004891,-0.112115
6.018763,0.018992,-0.004840,-0.118542
6.028772,0.044536,-0.014504,-0.124926
6.038813,0.001931,-0.006911,-0.120735
6.048822,0.016824,-0.011180,-0.131397
6.068872,-0.011947,-0.012180,-0.126140
6.078913,0.017872,-0.015435,-0.135687
6.088923,0.043431,-0.020843,-0.138846
6.098963,-0.011971,-0.018567,-0.130443
6.109003,0.016779,-0.022887,-0.139998
6.119013,0.037036,-0.022973,-0.135669
6.149103,0.025308,-0.026154,-0.132512
6.159113,-0.006665,-0.024977,-0.133663
6.169153,0.034870,-0.032552,-0.141062
6.179163,0.013581,-0.027184,-0.132550
6.189203,0.009322,-0.025029,-0.133619
6.199213,0.042325,-0.035790,-0.138920
6.209253,0.005037,-0.034642,-0.130472
6.219263,0.011444,-0.029313,-0.132566
6.229303,0.046591,-0.035814,-0.136772
6.239313,-0.003486,-0.034624,-0.128359
6.249353,0.011428,-0.031418,-0.138985
6.259363,0.049779,-0.037950,-0.138910
6.269403,-0.010941,-0.031386,-0.130501
6.279444,0.025267,-0.034642,-0.144303
6.289454,0.031658,-0.037881,-0.141096
6.299494,-0.001377,-0.034560,-0.143308
6.309504,0.011403,-0.034571,-0.149682
6.319544,0.039095,-0.039986,-0.152836
6.329554,-0.012047,-0.035563,-0.149751
6.339594,0.027358,-0.038829,-0.163545
6.349604,0.020977,-0.036698,-0.158211
6.359644,-0.004594,-0.032333,-0.160398
6.369654,0.038001,-0.037740,-0.175261
6.379694,0.017777,-0.033448,-0.165682
6.389704,0.011376,-0.032329,-0.172104
6.399744,0.034811,-0.033443,-0.178454
6.419794,0.027363,-0.029152,-0.177386
6.429804,0.029498,-0.027013,-0.179506
6.439844,0.029518,-0.019537,-0.179471
6.449884,0.032704,-0.023820,-0.179482
6.459894,0.039101,-0.021694,-0.181591
6.469934,0.039104,-0.018470,-0.185848
6.489985,0.043370,-0.016338,-0.187963
6.499994,0.032704,-0.019512,-0.186939
6.510035,0.015662,-0.016258,-0.185903
6.520044,0.036964,-0.018438,-0.191195
6.530085,0.022063,-0.014143,-0.185875
6.540094,0.018844,-0.018374,-0.192313
6.550135,0.050802,-0.024891,-0.191188
6.550135,0.050802,-0.024891,-0.191188
6.570185,0.035878,-0.024832,-0.193365
6.570185,0.035878,-0.024832,-0.193365
6.590235,0.038015,-0.022703,-0.193349
6.600245,0.027345,-0.025862,-0.195530
6.610285,0.053978,-0.030220,-0.195477
6.620325,0.038007,-0.023756,-0.196559
6.620325,0.038007,-0.023756,-0.196559
6.640375,0.048636,-0.035548,-0.194449
6.650385,0.055027,-0.031246,-0.205093
6.650385,0.055027,-0.031246,-0.205093
6.670435,0.059272,-0.036590,-0.207243
6.680475,0.029439,-0.030060,-0.212635
6.690485,0.032629,-0.032201,-0.213705
6.700525,0.051800,-0.035452,-0.216872
6.710535,0.017706,-0.031070,-0.216945
6.720575,0.041153,-0.028990,-0.221144
6.730585,0.029426,-0.027863,-0.225444
6.740625,0.016626,-0.031021,-0.226562
6.750635,0.029422,-0.024619,-0.233974
6.760675,0.025151,-0.026736,-0.235064
6.770685,0.019827,-0.026734,-0.231874
6.780725,0.024098,-0.018154,-0.242504
6.780725,0.024098,-0.018154,-0.242504
6.800776,0.037951,-0.020345,-0.240339
6.800776,0.037951,-0.020345,-0.240339
6.810816,0.025153,-0.020278,-0.245715
6.820826,0.025163,-0.020308,-0.239306
6.850916,0.025133,-0.024524,-0.251077
6.850916,0.025133,-0.024524,-0.251077
6.860926,0.053909,-0.028925,-0.243540
6.870966,0.036859,-0.026723,-0.245714
6.891016,0.044316,-0.028889,-0.244635
6.901026,0.028309,-0.033083,-0.250040
6.911066,0.036837,-0.035272,-0.244686
6.921076,0.048541,-0.039556,-0.250015
6.931116,0.029372,-0.036311,-0.245780
6.941126,0.030438,-0.035236,-0.247908
6.951166,0.044261,-0.042721,-0.255383
6.961206,0.010196,-0.031966,-0.247949
6.981256,0.019766,-0.038390,-0.251157
6.991266,0.036835,-0.030955,-0.254279
7.001307,0.041095,-0.037422,-0.244684
7.011316,0.037893,-0.034167,-0.253223
7.021386,0.054954,-0.033170,-0.249967
7.031395,0.049622,-0.036376,-0.245724
7.051445,0.071999,-0.036434,-0.248867
7.051445,0.071999,-0.036434,-0.248867
7.061486,0.062407,-0.035325,-0.251025
7.071495,0.069853,-0.040689,-0.251030
7.081536,0.075192,-0.035351,-0.254194
7.091546,0.056008,-0.036367,-0.252116
7.101586,0.083693,-0.042839,-0.257411
7.121636,0.082631,-0.039617,-0.260603
7.131646,0.066632,-0.041680,-0.264930
7.141686,0.055976,-0.042729,-0.261760
7.151726,0.076203,-0.047031,-0.269202
7.161736,0.055953,-0.046965,-0.269257
7.171776,0.067683,-0.047023,-0.264952
7.211876,0.061252,-0.055506,-0.273556
7.211876,0.061252,-0.055506,-0.273556
7.221886,0.075109,-0.054478,-0.274581
7.231926,0.092160,-0.054528,-0.275602
7.241936,0.060194,-0.054449,-0.270349
7.251976,0.092166,-0.049163,-0.280918
7.261986,0.096422,-0.055615,-0.274527
7.272026,0.066566,-0.060863,-0.273567
7.282036,0.079390,-0.045933,-0.277733
7.292077,0.113480,-0.052456,-0.276602
7.302086,0.053789,-0.054398,-0.276776
7.312127,0.094300,-0.050253,-0.277713
7.332177,0.068718,-0.050160,-0.279919
7.342217,0.070888,-0.038440,-0.275585
7.352227,0.083658,-0.043806,-0.278780
7.362267,0.068737,-0.043757,-0.278821
7.372277,0.067689,-0.039502,-0.274531
7.382317,0.078336,-0.041658,-0.277716
7.402367,0.068761,-0.037370,-0.274518
7.402367,0.068761,-0.037370,-0.274518
7.412377,0.077279,-0.038450,-0.277704
7.422417,0.085801,-0.039541,-0.278754
7.432427,0.075136,-0.041637,-0.279861
7.442467,0.081544,-0.036313,-0.280887
7.452477,0.068755,-0.034121,-0.284116
7.472527,0.059152,-0.036210,-0.287357
7.482567,0.065557,-0.029798,-0.292650
7.492608,0.061272,-0.034026,-0.299091
7.502617,0.059153,-0.030825,-0.296946
7.512658,0.051684,-0.029697,-0.304438
7.522667,0.036749,-0.031760,-0.309831
7.542717,0.052746,-0.027535,-0.310835
7.552758,0.034617,-0.029597,-0.314099
7.562767,0.043150,-0.025337,-0.317260
7.572808,0.037829,-0.024267,-0.314065
7.582817,0.055939,-0.025379,-0.317225
7.592858,0.051663,-0.028554,-0.320456
7.612908,0.063403,-0.023257,-0.319331
7.622918,0.051683,-0.022156,-0.318290
7.632958,0.044226,-0.022142,-0.316174
7.642968,0.071946,-0.020106,-0.313951
7.653008,0.045275,-0.025324,-0.321527
7.663048,0.045314,-0.014675,-0.315067
7.693108,0.044250,-0.014677,-0.314002
7.693108,0.044250,-0.014677,-0.314002
7.703148,0.073011,-0.019032,-0.316079
7.713158,0.021864,-0.018901,-0.308743
7.723198,0.066639,-0.013697,-0.310731
7.733208,0.063413,-0.024366,-0.310790
7.753258,0.071951,-0.020122,-0.310746
7.763298,0.051699,-0.021129,-0.309739
7.773308,0.077289,-0.019091,-0.306454
7.783348,0.085787,-0.026569,-0.311807
7.793358,0.043170,-0.021091,-0.311899
7.803399,0.106065,-0.019185,-0.306375
7.823449,0.046350,-0.028587,-0.309789
7.833489,0.111376,-0.020219,-0.317047
7.843499,0.090032,-0.030834,-0.316088
7.853539,0.047401,-0.029623,-0.317269
7.863549,0.094303,-0.023332,-0.324587
7.873589,0.090017,-0.034018,-0.320376
7.903649,0.074020,-0.032858,-0.328961
7.903649,0.074020,-0.032858,-0.328961
7.913689,0.059122,-0.022110,-0.333224
7.923699,0.097455,-0.032893,-0.337442
7.933739,0.056957,-0.031694,-0.337548
7.943749,0.069764,-0.028557,-0.332157
7.963799,0.082553,-0.026442,-0.336384
7.973839,0.071884,-0.028528,-0.339628
7.983849,0.062300,-0.024215,-0.341771
7.993889,0.080427,-0.023221,-0.338511
8.003930,0.090016,-0.024321,-0.338490
8.013939,0.075106,-0.020000,-0.338511
8.044038,0.075118,-0.016807,-0.336359
8.054047,0.095333,-0.027531,-0.340627
8.064088,0.051674,-0.017819,-0.332156
8.074097,0.113480,-0.015833,-0.342658
8.084138,0.058030,-0.028488,-0.338598
8.104188,0.107074,-0.020084,-0.342696
8.104188,0.107074,-0.020084,-0.342696
8.114198,0.051646,-0.025269,-0.337532
8.124238,0.054851,-0.017763,-0.346034
8.134248,0.103869,-0.022204,-0.343783
8.144288,0.031383,-0.027319,-0.341871
8.154298,0.074018,-0.025311,-0.343880
8.184388,0.067621,-0.024207,-0.347097
8.184388,0.067621,-0.024207,-0.347097
8.194428,0.070812,-0.027427,-0.346035
8.204438,0.075086,-0.023169,-0.346003
8.214478,0.081460,-0.028509,-0.350284
8.224488,0.064404,-0.027365,-0.354598
8.244538,0.091051,-0.027457,-0.353457
8.254578,0.068658,-0.029505,-0.356733
8.264588,0.071889,-0.021002,-0.350275
8.274628,0.094234,-0.028500,-0.360930
8.284638,0.067598,-0.028444,-0.354595
8.294679,0.072948,-0.019907,-0.356676
8.334779,0.088917,-0.026367,-0.356662
8.334779,0.088917,-0.026367,-0.356662
8.344788,0.075041,-0.028412,-0.366324
8.354829,0.063332,-0.028420,-0.356743
8.364869,0.077185,-0.025225,-0.364167
8.374879,0.082525,-0.025278,-0.356675
8.384919,0.062264,-0.024099,-0.366339
8.394929,0.081459,-0.024197,-0.358809
8.404969,0.064420,-0.019875,-0.357767
8.414979,0.111285,-0.028550,-0.361952
8.425019,0.072947,-0.022058,-0.353481
8.435029,0.084665,-0.019925,-0.360916
8.455079,0.064417,-0.023099,-0.353510
8.465119,0.100643,-0.023181,-0.360888
8.475129,0.084673,-0.021029,-0.353444
8.485169,0.088936,-0.017808,-0.359826
8.495179,0.100645,-0.024264,-0.357688
8.505219,0.066520,-0.030556,-0.358880
8.525269,0.084655,-0.025280,-0.357737
8.525269,0.084655,-0.025280,-0.357737
8.535310,0.079296,-0.032708,-0.364196
8.545319,0.075059,-0.023083,-0.364163
8.555360,0.069715,-0.031634,-0.358877
8.565369,0.081432,-0.030574,-0.365249
8.575410,0.081444,-0.026302,-0.365228
8.595460,0.098471,-0.033818,-0.368421
8.605470,0.064381,-0.029446,-0.366359
8.615510,0.080359,-0.032701,-0.366330
8.625520,0.093132,-0.036999,-0.369519
8.635560,0.068637,-0.032668,-0.365294
8.645570,0.084641,-0.025235,-0.367351
8.675660,0.077166,-0.027321,-0.372722
8.675660,0.077166,-0.027321,-0.372722
8.685670,0.110202,-0.030647,-0.369442
8.695710,0.040918,-0.031475,-0.372842
8.705750,0.077171,-0.027336,-0.369518
8.715760,0.114480,-0.024243,-0.371537
8.735810,0.088899,-0.024155,-0.372675
8.735810,0.088899,-0.024155,-0.372675
8.745850,0.079331,-0.017737,-0.368398
8.755860,0.061183,-0.027279,-0.370630
8.765900,0.064403,-0.018746,-0.370581
8.775910,0.096379,-0.017777,-0.371556
8.785950,0.063331,-0.021951,-0.369531
8.816010,0.050530,-0.029416,-0.363192
8.816010,0.050530,-0.029416,-0.363192
8.826051,0.080393,-0.023115,-0.360943
8.836060,0.083630,-0.002784,-0.371520
8.846101,0.081414,-0.033747,-0.371673
8.856110,0.054803,-0.022997,-0.368491
8.876191,0.056935,-0.020853,-0.371680
8.886201,0.085705,-0.025233,-0.368416
8.896241,0.091043,-0.024203,-0.364124
8.906251,0.083584,-0.020949,-0.369470
8.916291,0.076108,-0.025187,-0.371647
8.926301,0.056931,-0.022993,-0.370621
8.956391,0.061179,-0.026191,-0.374898
8.956391,0.061179,-0.026191,-0.374898
8.966401,0.070812,-0.014500,-0.369475
8.976441,0.094223,-0.025235,-0.373734
8.986451,0.058011,-0.019808,-0.367399
8.996491,0.075063,-0.016630,-0.373746
9.016541,0.054813,-0.019798,-0.367408
9.026565,0.089979,-0.022048,-0.367321
9.036605,0.091062,-0.016722,-0.365156
9.046615,0.085708,-0.023087,-0.370542
9.056655,0.086784,-0.020970,-0.367325
9.066696,0.087865,-0.016712,-0.365165
9.086746,0.054809,-0.024095,-0.362087
9.096755,0.096394,-0.016749,-0.363005
9.106796,0.102773,-0.023183,-0.361950
9.116806,0.062270,-0.024119,-0.362066
9.126846,0.082523,-0.022039,-0.364137
9.136856,0.066560,-0.017756,-0.355615
9.156906,0.097423,-0.032792,-0.358806
9.166946,0.046312,-0.016617,-0.356734
9.176956,0.115584,-0.016827,-0.359748
9.186996,0.081446,-0.028463,-0.359897
9.197006,0.050565,-0.020908,-0.355674
9.207046,0.127299,-0.022225,-0.355468
9.227096,0.080392,-0.025266,-0.357749
9.227096,0.080392,-0.025266,-0.357749
9.237136,0.098511,-0.025325,-0.357699
9.247146,0.079334,-0.024210,-0.354542
9.257186,0.083597,-0.022068,-0.358793
9.267196,0.113430,-0.026447,-0.356595
9.277236,0.070811,-0.023114,-0.354560
9.297286,0.099593,-0.021072,-0.354471
9.307296,0.080392,-0.026344,-0.355617
9.317337,0.093197,-0.023202,-0.351294
9.327346,0.066568,-0.016703,-0.352405
9.337387,0.103867,-0.020043,-0.349114
9.347396,0.080415,-0.021030,-0.350251
9.367446,0.079358,-0.019979,-0.345976
9.377487,0.089998,-0.024265,-0.350240
9.387496,0.058031,-0.024181,-0.346055
9.397537,0.079354,-0.019964,-0.349181
9.407577,0.083604,-0.027478,-0.343864
9.417587,0.054842,-0.022045,-0.343917
9.437637,0.071878,-0.028508,-0.343901
9.447677,0.081480,-0.029648,-0.335334
9.457687,0.075091,-0.023184,-0.342799
9.467727,0.078269,-0.033904,-0.336431
9.477737,0.061249,-0.025335,-0.330029
9.487777,0.104937,-0.025447,-0.336318
9.497787,0.064428,-0.034982,-0.324724
9.507827,0.086818,-0.028617,-0.331042
9.517837,0.088974,-0.024393,-0.322470
9.527877,0.075098,-0.032901,-0.320412
9.537887,0.078288,-0.033965,-0.323613
9.547927,0.077264,-0.023322,-0.315020
9.557937,0.090017,-0.035096,-0.318245
9.588027,0.093221,-0.035127,-0.313963
9.598068,0.052734,-0.032884,-0.308723
9.608078,0.070875,-0.026551,-0.305439
9.618118,0.078321,-0.032993,-0.303312
9.628128,0.057013,-0.031871,-0.300161
9.648178,0.060229,-0.027630,-0.295859
9.648178,0.060229,-0.027630,-0.295859
9.658218,0.078329,-0.033018,-0.297971
9.668228,0.064497,-0.028737,-0.290512
9.678268,0.076228,-0.027722,-0.287270
9.688278,0.093271,-0.030976,-0.288306
9.698318,0.071982,-0.023452,-0.284057
9.718368,0.079449,-0.023496,-0.279763
9.728378,0.079449,-0.024574,-0.277632
9.738418,0.086907,-0.025666,-0.277617
9.748458,0.076261,-0.024594,-0.271232
9.758468,0.071999,-0.023507,-0.272307
9.768508,0.077339,-0.020326,-0.271209
9.788558,0.069878,-0.021380,-0.269098
9.798568,0.054962,-0.021347,-0.265934
9.808609,0.051775,-0.019216,-0.262728
9.818618,0.072033,-0.019307,-0.257332
9.828659,0.045386,-0.022444,-0.253147
9.838668,0.065637,-0.019281,-0.258417
9.858718,0.061381,-0.020365,-0.252025
9.868759,0.063520,-0.020397,-0.246678
9.878768,0.060344,-0.015068,-0.242389
9.888809,0.083779,-0.021567,-0.239150
9.898818,0.049687,-0.018267,-0.236024
9.908859,0.074199,-0.019420,-0.234894
9.928909,0.041174,-0.016129,-0.230697
9.938949,0.064626,-0.015142,-0.229559
9.948959,0.058226,-0.018335,-0.227455
9.958999,0.056084,-0.022605,-0.226413
9.969009,0.044392,-0.015127,-0.218933
9.979049,0.062477,-0.022621,-0.227464
10.009109,0.032664,-0.018308,-0.215775
10.019167,0.048636,-0.021543,-0.220019
10.029177,0.037971,-0.026874,-0.214733
10.039217,0.032681,-0.014051,-0.212551
10.049227,0.056112,-0.020540,-0.211448
10.069277,0.039072,-0.019447,-0.205081
10.079317,0.061450,-0.022739,-0.201830
10.089327,0.016703,-0.017259,-0.200860
10.099367,0.079586,-0.018546,-0.197487
10.109408,0.041213,-0.019484,-0.198666
10.119418,0.036967,-0.016292,-0.193322
10.139468,0.046546,-0.021668,-0.192252
10.149508,0.019924,-0.016267,-0.186959
10.159518,0.058272,-0.022789,-0.189021
10.169558,0.027373,-0.020563,-0.186959
10.179568,0.040173,-0.018484,-0.183709
10.189608,0.024183,-0.019500,-0.183758
10.209658,0.020989,-0.020578,-0.179499
10.219668,0.033771,-0.022750,-0.180542
10.229708,0.022065,-0.018461,-0.176282
10.239718,0.045507,-0.020673,-0.176227
10.249758,0.029523,-0.020631,-0.174135
10.259768,0.027405,-0.017435,-0.170921
10.269808,0.046578,-0.020691,-0.173020
10.279848,0.032726,-0.023890,-0.164527
10.289858,0.032726,-0.022812,-0.166659
10.299898,0.049786,-0.021815,-0.163402
10.309908,0.029544,-0.019618,-0.162380
10.319949,0.046586,-0.022873,-0.163416
10.329958,0.024210,-0.024971,-0.156010
10.350008,0.044465,-0.020745,-0.160207
10.360049,0.025276,-0.024975,-0.156007
10.370058,0.019935,-0.028151,-0.158174
10.380099,0.017827,-0.022835,-0.151745
10.390108,0.031679,-0.019635,-0.160237
10.400149,0.011433,-0.023892,-0.149631
10.430209,0.014639,-0.022855,-0.145345
10.440249,0.031674,-0.027162,-0.149591
10.450289,0.019964,-0.026091,-0.142141
10.460299,0.028490,-0.025041,-0.144249
10.470339,0.039149,-0.027231,-0.139957
10.490389,0.034887,-0.027223,-0.138900
10.500399,0.034887,-0.029345,-0.138922
10.510439,0.031707,-0.024034,-0.133553
10.520449,0.041289,-0.027264,-0.134610
10.530489,0.031693,-0.028300,-0.134641
10.540499,0.023178,-0.026152,-0.131450
10.560549,0.021049,-0.026155,-0.129319
10.570589,0.026386,-0.022964,-0.130358
10.570589,0.026386,-0.022964,-0.130358
10.590639,0.015726,-0.025080,-0.127193
10.600649,0.032782,-0.025146,-0.125009
10.600649,0.032782,-0.025146,-0.125009
10.610690,0.029585,-0.024057,-0.127149
10.640780,0.025323,-0.025126,-0.123962
10.650790,0.035988,-0.025181,-0.119660
10.650790,0.035988,-0.025181,-0.119660
10.660830,0.032802,-0.020899,-0.119648
10.670840,0.033858,-0.024101,-0.120729
10.680880,0.025341,-0.023026,-0.116474
10.720980,0.039194,-0.023066,-0.117504
10.720980,0.039194,-0.023066,-0.117504
10.730990,0.008306,-0.017641,-0.114359
10.741030,0.033878,-0.017704,-0.118562
10.751040,0.020034,-0.015538,-0.115385
10.771090,0.025357,-0.017691,-0.115381
10.771090,0.025357,-0.017691,-0.115381
10.781130,0.018970,-0.016618,-0.112189
10.791140,0.028562,-0.015571,-0.114294
10.801180,0.041351,-0.015613,-0.114258
10.811221,0.012581,-0.015539,-0.110065
10.821230,0.037090,-0.015604,-0.113202
10.851321,0.020052,-0.012365,-0.108961
10.851321,0.020052,-0.012365,-0.108961
10.861330,0.024311,-0.013442,-0.110022
10.871371,0.026435,-0.015579,-0.111095
10.881380,0.018990,-0.014528,-0.102565
10.891421,0.018991,-0.012377,-0.105759
10.911471,0.010456,-0.015553,-0.105798
10.911471,0.010456,-0.015553,-0.105798
10.921481,0.020041,-0.019871,-0.102587
10.931521,0.021121,-0.017764,-0.097233
10.941531,0.012595,-0.014507,-0.102582
10.951571,0.009397,-0.017725,-0.097265
10.961581,0.011516,-0.019848,-0.101542
10.991671,0.015787,-0.018809,-0.098321
10.991671,0.015787,-0.018809,-0.098321
11.001711,0.010466,-0.017739,-0.095126
11.011721,0.003002,-0.017705,-0.097283
11.021782,0.018991,-0.019918,-0.091908
11.031792,0.015788,-0.020965,-0.094058
11.071892,0.015786,-0.022038,-0.092995
11.071892,0.015786,-0.022038,-0.092995
11.081932,0.016855,-0.022052,-0.090856
11.091942,0.023235,-0.024178,-0.097258
11.101982,0.001934,-0.022003,-0.090897
11.122033,0.020063,-0.018863,-0.089764
11.122033,0.020063,-0.018863,-0.089764
11.132042,-0.001279,-0.027327,-0.091999
11.142083,0.005131,-0.019858,-0.095151
11.152123,0.016856,-0.019901,-0.094050
11.162133,0.022144,-0.033791,-0.096238
11.172173,0.008327,-0.022019,-0.091948
11.202233,0.015785,-0.024189,-0.089801
11.202233,0.015785,-0.024189,-0.089801
11.212273,0.016852,-0.026349,-0.085535
11.222283,0.017921,-0.022055,-0.090853
11.232323,0.005136,-0.022029,-0.087684
11.242333,0.013659,-0.024197,-0.086602
11.262383,0.015801,-0.022084,-0.083381
11.262383,0.015801,-0.022084,-0.083381
11.272423,0.009409,-0.019917,-0.085525
11.282433,0.023253,-0.025312,-0.083376
11.292473,0.004083,-0.020988,-0.081272
11.302483,0.022200,-0.021042,-0.082291
11.312523,0.013681,-0.019961,-0.079104
11.342614,0.009414,-0.023166,-0.075927
11.342614,0.009414,-0.023166,-0.075927
11.352623,0.012622,-0.018900,-0.076966
11.362664,0.019012,-0.019984,-0.078022
11.372673,0.005154,-0.022085,-0.075933
11.382714,0.016882,-0.021060,-0.074828
11.412773,0.017944,-0.022126,-0.075898
11.412773,0.017944,-0.022126,-0.075898
11.422814,0.010479,-0.024243,-0.074861
11.432824,0.003027,-0.019937,-0.076997
11.442864,0.014748,-0.022121,-0.074839
11.452874,0.012619,-0.018890,-0.079102
11.482964,0.008345,-0.023153,-0.078066
11.482964,0.008345,-0.023153,-0.078066
11.492974,0.013680,-0.022112,-0.075910
11.503014,0.007272,-0.025280,-0.079147
11.513054,0.011540,-0.025309,-0.075931
11.523064,0.004078,-0.025280,-0.077020
11.543114,0.014743,-0.022106,-0.078043
11.543114,0.014743,-0.022106,-0.078043
11.553154,0.004078,-0.026358,-0.074888
11.563164,0.005144,-0.026361,-0.074885
11.573204,0.001958,-0.023157,-0.072743
11.583214,0.016884,-0.019987,-0.075891
11.593254,0.000900,-0.021023,-0.071667
11.623314,0.011575,-0.016801,-0.068413
11.633355,0.011573,-0.017874,-0.067350
11.643364,0.005172,-0.022140,-0.064183
11.653405,0.011557,-0.024287,-0.066312
11.663414,0.005191,-0.016816,-0.060953
11.673455,0.014776,-0.018978,-0.062005
11.683495,0.008383,-0.020040,-0.058823
11.693505,0.006252,-0.021111,-0.056698
11.703545,0.008386,-0.020050,-0.056687
11.713555,0.012654,-0.019001,-0.055602
11.723595,0.007323,-0.020057,-0.054554
11.733605,0.003049,-0.025393,-0.052454
11.763695,0.000924,-0.021099,-0.055644
11.763695,0.000924,-0.021099,-0.055644
11.773705,-0.007605,-0.023217,-0.053542
11.783745,-0.004412,-0.024290,-0.054606
11.793755,-0.013986,-0.018930,-0.052471
11.803795,-0.001210,-0.018931,-0.060981
11.823845,-0.002276,-0.022156,-0.055658
11.823845,-0.002276,-0.022156,-0.055658
11.833855,-0.011855,-0.017859,-0.054596
11.843895,-0.002271,-0.018943,-0.057779
11.853936,-0.001211,-0.021082,-0.057787
11.863945,0.001987,-0.023248,-0.053515
11.873986,-0.010801,-0.021056,-0.056745
11.904045,0.012634,-0.027555,-0.053506
11.904045,0.012634,-0.027555,-0.053506
11.914086,-0.002275,-0.025391,-0.049264
11.924096,0.006248,-0.025408,-0.051377
11.934136,0.015840,-0.025439,-0.051351
11.944146,-0.006537,-0.025382,-0.048208
11.964196,-0.000138,-0.024340,-0.047117
11.964196,-0.000138,-0.024340,-0.047117
11.974236,0.004124,-0.023270,-0.050305
11.984246,-0.003341,-0.026465,-0.047136
11.994286,-0.008664,-0.025390,-0.045009
12.004296,0.000925,-0.024333,-0.049250
12.014336,-0.006532,-0.025397,-0.045003
12.044452,-0.011869,-0.027510,-0.046096
12.044452,-0.011869,-0.027510,-0.046096
12.054462,0.005191,-0.027586,-0.041776
12.064502,0.003057,-0.025418,-0.047113
12.074512,-0.008670,-0.030755,-0.039693
12.084552,0.003054,-0.028642,-0.042856
12.104602,0.009462,-0.024396,-0.041750
12.104602,0.009462,-0.024396,-0.041750
12.114612,0.005196,-0.025450,-0.041766
12.124653,0.005197,-0.028684,-0.035372
12.134662,0.005212,-0.019038,-0.042804
12.144703,0.014801,-0.022288,-0.039588
12.154712,-0.001182,-0.021173,-0.038559
12.184803,0.004144,-0.021180,-0.040681
12.184803,0.004144,-0.021180,-0.040681
12.194843,-0.000105,-0.019056,-0.035341
12.204853,-0.002239,-0.019044,-0.036416
12.214893,-0.006502,-0.019030,-0.036427
12.224903,0.007352,-0.019070,-0.037457
12.244953,-0.004368,-0.020120,-0.033222
12.244953,-0.004368,-0.020120,-0.033222
12.254993,0.004143,-0.024409,-0.035355
12.265003,0.003089,-0.021212,-0.033206
12.275043,0.004158,-0.019070,-0.035330
12.285053,0.006275,-0.025494,-0.033218
12.295093,-0.009706,-0.024384,-0.031120
12.325153,-0.002247,-0.024404,-0.032168
12.325153,-0.002247,-0.024404,-0.032168
12.335193,0.004145,-0.026570,-0.030024
12.345203,0.000952,-0.024419,-0.031091
12.355243,0.003082,-0.025499,-0.030022
12.365253,0.006278,-0.024426,-0.033213
12.385334,-0.003310,-0.023332,-0.032166
12.385334,-0.003310,-0.023332,-0.032166
12.395343,0.006282,-0.023363,-0.032140
12.405384,0.000949,-0.025487,-0.031096
12.415393,-0.000108,-0.023358,-0.028953
12.425434,-0.001180,-0.024412,-0.031097
12.435444,0.004155,-0.022294,-0.031072
12.465534,-0.003300,-0.022285,-0.027888
12.465534,-0.003300,-0.022285,-0.027888
12.475544,0.008431,-0.019114,-0.028909
12.485584,0.013758,-0.019126,-0.029962
12.495594,-0.005427,-0.022293,-0.024689
12.505634,0.005229,-0.020166,-0.029991
12.525684,0.005239,-0.016968,-0.028908
12.525684,0.005239,-0.016968,-0.028908
12.535694,0.004182,-0.014838,-0.026764
12.545734,0.008431,-0.020192,-0.026778
12.555774,-0.009675,-0.014788,-0.027870
12.565784,0.010571,-0.015917,-0.028888
12.575824,-0.011803,-0.015870,-0.023608
12.605884,0.004170,-0.018032,-0.028916
12.605884,0.004170,-0.018032,-0.028916
12.615924,-0.007550,-0.019082,-0.024680
12.625934,0.003098,-0.022315,-0.025734
12.635975,-0.012877,-0.019070,-0.023626
12.645984,0.008440,-0.016988,-0.026762
12.676075,-0.010749,-0.019067,-0.025757
12.676075,-0.010749,-0.019067,-0.025757
12.686084,0.010576,-0.018088,-0.021421
12.696125,-0.005406,-0.016973,-0.020391
12.706134,0.015886,-0.024508,-0.022505
12.716175,-0.015001,-0.018010,-0.020423
12.726215,0.014832,-0.019155,-0.024619
12.736225,-0.009672,-0.019106,-0.018277
12.746265,0.004204,-0.010597,-0.020335
12.756275,-0.001165,-0.024458,-0.021483
12.766315,-0.000085,-0.019121,-0.021455
12.776325,-0.001137,-0.014851,-0.020369
12.786365,0.007352,-0.026611,-0.023606
12.806415,0.011651,-0.014888,-0.021402
12.806415,0.011651,-0.014888,-0.021402
12.816425,-0.010762,-0.025489,-0.022583
12.826465,-0.021407,-0.019032,-0.025786
12.836475,0.015901,-0.020246,-0.020348
12.846515,-0.009686,-0.022294,-0.021497
12.856525,-0.017142,-0.019051,-0.024706
12.876575,-0.007543,-0.016951,-0.023602
12.886615,-0.000092,-0.020174,-0.024665
12.896656,-0.011816,-0.020136,-0.024697
12.906665,-0.001164,-0.022307,-0.024678
12.916706,-0.012895,-0.025477,-0.023657
12.926716,-0.015014,-0.020126,-0.024706
12.946766,-0.026737,-0.021166,-0.022607
12.946766,-0.026737,-0.021166,-0.022607
12.956806,0.009496,-0.023424,-0.021449
12.966816,-0.012885,-0.021201,-0.024705
12.976856,-0.007551,-0.021233,-0.021486
12.986866,0.000978,-0.021271,-0.019326
12.996906,-0.011812,-0.022302,-0.018298
13.016956,0.003113,-0.020210,-0.019315
13.026995,-0.013934,-0.019097,-0.017220
13.037035,0.015898,-0.021314,-0.020353
13.047045,-0.022461,-0.020142,-0.016181
13.057085,-0.002216,-0.021271,-0.017198
13.067095,-0.004347,-0.022342,-0.015073
13.087175,0.006317,-0.021319,-0.012902
13.097185,-0.010753,-0.024442,-0.018305
13.107225,-0.007542,-0.021263,-0.015076
13.117235,0.007366,-0.023423,-0.020386
13.127276,-0.020336,-0.022285,-0.016185
13.137285,-0.001132,-0.017023,-0.012902
13.157335,-0.010742,-0.021243,-0.017222
13.167376,0.006320,-0.019173,-0.015028
13.177385,0.006295,-0.027711,-0.016137
13.187426,-0.008610,-0.022328,-0.015084
13.197435,0.008438,-0.022368,-0.018242
13.207476,0.005226,-0.027697,-0.018276
13.217485,-0.015004,-0.019078,-0.020428
13.227526,0.013762,-0.023448,-0.019301
13.237536,-0.013947,-0.023363,-0.018309
13.247576,-0.002227,-0.022313,-0.022544
13.257616,-0.001162,-0.023390,-0.021478
13.267626,-0.011817,-0.023365,-0.019371
13.277666,-0.009684,-0.021221,-0.022560
13.297716,-0.018209,-0.022277,-0.019384
13.307726,0.005233,-0.024489,-0.019329
13.317766,-0.002211,-0.019130,-0.018256
13.327776,-0.012879,-0.021221,-0.020432
13.337816,-0.009676,-0.021246,-0.017219
13.347826,0.006317,-0.020241,-0.015033
13.357866,-0.002217,-0.022344,-0.016135
13.367876,-0.000084,-0.022356,-0.015061
13.377916,0.003124,-0.018089,-0.016100
13.387926,-0.004347,-0.022342,-0.015073
13.397966,-0.010741,-0.024477,-0.010828
13.407976,0.007372,-0.023443,-0.016114
13.418016,-0.018199,-0.024463,-0.008712
13.438067,0.003121,-0.021313,-0.011843
13.448107,-0.025655,-0.021220,-0.011922
13.458117,-0.006486,-0.024466,-0.016157
13.468157,-0.017129,-0.021247,-0.011898
13.478167,-0.021394,-0.021229,-0.012978
13.488207,-0.012860,-0.019125,-0.011876
13.498217,-0.002212,-0.022359,-0.012930
13.508257,-0.011798,-0.022348,-0.008684
13.518267,-0.010739,-0.022331,-0.012954
13.528307,-0.001136,-0.020242,-0.009713
13.538317,-0.011782,-0.017013,-0.007591
13.548357,0.007384,-0.021327,-0.011831
13.558367,0.004211,-0.016007,-0.005405
13.578417,-0.000066,-0.019182,-0.008637
13.588457,0.002071,-0.018126,-0.007558
13.598497,-0.007529,-0.021304,-0.006531
13.608507,-0.008592,-0.019155,-0.008660
13.618547,0.005271,-0.015991,-0.009675
13.628557,-0.006460,-0.020239,-0.006523
13.638598,-0.012867,-0.023412,-0.008692
13.648607,0.006329,-0.019203,-0.008619
13.658648,-0.009669,-0.023423,-0.008683
13.668657,-0.012877,-0.027689,-0.007644
13.678698,-0.001138,-0.024544,-0.003324
13.688707,0.004181,-0.027760,-0.004393
13.698748,-0.012877,-0.027689,-0.007644
13.718798,-0.004336,-0.026684,-0.000138
13.728807,-0.000097,-0.034164,-0.002298
13.738848,0.003125,-0.024558,-0.003312
13.748858,-0.001136,-0.026705,0.002007
13.758898,0.007381,-0.027780,-0.002247
13.768938,0.007395,-0.025670,0.003104
13.798998,-0.005381,-0.021361,0.004157
13.809038,0.005271,-0.022454,0.002045
13.819048,-0.000059,-0.024588,0.005225
13.829088,-0.006440,-0.018149,0.003101
13.839098,0.002085,-0.019250,0.004188
13.849138,-0.001112,-0.020318,0.006310
13.859148,-0.002177,-0.017085,0.000981
13.869188,-0.012840,-0.020264,0.003073
13.879198,0.005281,-0.020333,0.005259
13.889238,-0.011765,-0.015991,0.002028
13.899248,-0.010709,-0.021349,0.005210
13.909288,-0.005386,-0.021346,0.000952
13.929339,-0.021380,-0.024503,0.001961
13.939348,0.006334,-0.023525,0.002043
13.949389,-0.017111,-0.023459,0.004115
13.959429,-0.018192,-0.027717,0.001955
13.969439,-0.006457,-0.024557,0.003071
13.979479,-0.010722,-0.025616,0.004122
13.999529,-0.002201,-0.028857,0.006267
14.009539,-0.016052,-0.026672,0.005171
14.019579,-0.018184,-0.025587,0.003033
14.029586,0.010587,-0.028894,0.005234
14.039626,-0.028830,-0.023436,0.007287
14.049636,-0.006460,-0.025625,0.003066
14.059676,-0.008587,-0.026711,0.008396
14.069686,-0.009641,-0.022436,0.008413
14.079726,-0.018180,-0.024524,0.004107
14.089736,-0.019239,-0.025619,0.010508
14.099776,-0.007507,-0.020297,0.006293
14.109786,-0.010707,-0.021354,0.006279
14.119826,-0.023505,-0.025595,0.008360
14.139876,-0.001116,-0.023536,0.009499
14.149917,-0.026691,-0.021312,0.008371
14.159926,-0.005372,-0.020314,0.008435
14.169967,-0.005370,-0.020319,0.009503
14.179976,-0.010707,-0.022432,0.008410
14.190017,-0.022417,-0.017050,0.007335
14.210067,-0.018158,-0.020282,0.010536
14.220076,-0.007513,-0.021355,0.004151
14.230117,-0.011774,-0.023502,0.009470
14.240127,-0.007501,-0.017083,0.004171
14.250167,-0.005391,-0.025638,0.005205
14.260177,-0.022442,-0.025588,0.006226
14.280227,0.008474,-0.021406,0.004195
14.290267,-0.036293,-0.024480,0.007261
14.300307,-0.006444,-0.020290,0.004159
14.300307,-0.006444,-0.020290,0.004159
14.320357,-0.022438,-0.023447,0.005168
14.330367,-0.009649,-0.022411,0.003072
14.340407,0.003153,-0.022493,0.011653
14.350417,-0.017112,-0.023454,0.003046
14.360457,-0.010712,-0.025646,0.010531
14.370467,-0.020300,-0.024552,0.011578
14.380507,0.005273,-0.024615,0.007376
14.390517,-0.004316,-0.025672,0.011617
14.400557,-0.007525,-0.028855,0.009457
14.420607,-0.003247,-0.024608,0.011625
14.420607,-0.003247,-0.024608,0.011625
14.440658,-0.017113,-0.026683,0.008372
14.450667,-0.004302,-0.023562,0.016968
14.460708,-0.004307,-0.021390,0.009501
14.460708,-0.004307,-0.021390,0.009501
14.470748,-0.002194,-0.029956,0.012671
14.490798,0.002088,-0.022489,0.011650
14.510848,-0.018180,-0.029909,0.013695
14.510848,-0.018180,-0.029909,0.013695
14.520858,-0.004323,-0.024574,0.005213
14.540908,-0.020306,-0.025610,0.009437
14.560958,-0.017102,-0.025641,0.013718
14.560958,-0.017102,-0.025641,0.013718
14.570998,-0.010723,-0.025611,0.003054
14.581008,-0.008595,-0.030993,0.010512
14.591048,-0.011789,-0.027763,0.007314
14.601058,-0.004336,-0.027762,0.001993
14.611098,-0.018171,-0.025627,0.011579
14.641158,-0.010718,-0.026704,0.008390
14.641158,-0.010718,-0.026704,0.008390
14.651198,-0.007510,-0.021365,0.006287
14.661239,0.003134,-0.026739,0.006291
14.671248,-0.004328,-0.027788,0.007334
14.681289,-0.028824,-0.020222,0.005166
14.701339,-0.001115,-0.022463,0.008436
14.701339,-0.001115,-0.022463,0.008436
14.711348,-0.003257,-0.024577,0.005216
14.721389,-0.020292,-0.023499,0.014788
14.731398,-0.005365,-0.016027,0.005250
14.741439,-0.007512,-0.024589,0.010545
14.751449,-0.009649,-0.026718,0.010529
14.781539,-0.008577,-0.020278,0.003085
14.781539,-0.008577,-0.020278,0.003085
14.791549,-0.002186,-0.026752,0.012686
14.801589,-0.029892,-0.024521,0.011552
14.811599,-0.000044,-0.020326,0.007381
14.821639,-0.008554,-0.019276,0.016977
14.841689,-0.010697,-0.023541,0.016950
14.841689,-0.010697,-0.023541,0.016950
14.851729,-0.012828,-0.020305,0.011619
14.861739,-0.006454,-0.024567,0.005207
14.871779,-0.012826,-0.022466,0.016950
14.881789,0.004206,-0.025685,0.008436
14.891829,-0.011781,-0.025633,0.008392
14.921889,-0.005389,-0.026721,0.008404
14.931929,-0.019246,-0.027749,0.009429
14.941939,-0.009644,-0.022426,0.006277
14.951980,-0.005382,-0.025669,0.011614
14.961989,-0.024570,-0.024518,0.007294
14.982039,-0.021375,-0.027753,0.011560
14.982039,-0.021375,-0.027753,0.011560
14.992080,-0.021372,-0.024529,0.007302
15.002120,-0.005375,-0.022460,0.010561
15.012130,-0.011789,-0.026685,0.005182
15.022212,-0.007521,-0.026714,0.008399
15.032222,-0.003251,-0.023519,0.007357
15.052272,-0.003247,-0.024608,0.011625
15.052272,-0.003247,-0.024608,0.011625
15.062312,0.001029,-0.019277,0.010594
15.072322,-0.003252,-0.024592,0.008420
15.082362,-0.011774,-0.024580,0.011602
15.092372,-0.001111,-0.022474,0.010573
15.102412,-0.022421,-0.022425,0.014787
15.122462,-0.001119,-0.025682,0.011626
15.122462,-0.001119,-0.025682,0.011626
15.132472,-0.023491,-0.022406,0.011579
15.142512,-0.004320,-0.026735,0.010544
15.152522,-0.013890,-0.020311,0.013752
15.162562,-0.007520,-0.025641,0.007335
15.172603,-0.014970,-0.026726,0.015855
15.192653,-0.004322,-0.028886,0.013738
15.192653,-0.004322,-0.028886,0.013738
15.202662,-0.021355,-0.022428,0.014790
15.212703,0.014847,-0.031054,0.007372
15.222712,-0.013903,-0.027812,0.019058
15.232753,0.011661,-0.025694,0.005252
15.242763,-0.011784,-0.032086,0.017975
15.272853,-0.002199,-0.032097,0.013729
15.272853,-0.002199,-0.032097,0.013729
15.282863,-0.018182,-0.028826,0.010496
15.292903,0.007398,-0.031065,0.014828
15.302913,-0.007519,-0.026719,0.009467
15.312953,-0.004337,-0.030991,0.007319
15.343043,-0.001129,-0.027803,0.008411
15.343043,-0.001129,-0.027803,0.008411
15.353053,-0.016037,-0.024566,0.011590
15.363093,0.001010,-0.025679,0.009495
15.373103,-0.014964,-0.021361,0.010540
15.383143,-0.004299,-0.017108,0.007385
15.403193,-0.024555,-0.020257,0.009450
15.403193,-0.024555,-0.020257,0.009450
15.413203,-0.008554,-0.016042,0.010583
15.423243,0.008499,-0.018253,0.014892
15.443294,0.003159,-0.018201,0.007400
15.443294,0.003159,-0.018201,0.007400
15.453303,-0.012808,-0.014980,0.014849
15.473353,-0.018152,-0.021381,0.016940
15.483394,-0.012824,-0.017086,0.008429
15.493403,0.007424,-0.020376,0.012743
15.503444,-0.020296,-0.022411,0.010520
15.513453,-0.009651,-0.026713,0.009461
15.523494,-0.023479,-0.020290,0.015862
15.543544,-0.023494,-0.025630,0.015837
15.543544,-0.023494,-0.025630,0.015837
15.553584,-0.002189,-0.025664,0.008418
15.563594,-0.017125,-0.030955,0.008352
15.573634,-0.016041,-0.026707,0.012648
15.583644,-0.001137,-0.028856,0.005201
15.593684,-0.024576,-0.030961,0.014741
15.613734,-0.001126,-0.026735,0.008416
15.623744,-0.012842,-0.025644,0.011594
15.633784,0.001001,-0.026727,0.005217
15.643794,-0.026682,-0.022416,0.015843
15.653834,-0.003255,-0.026738,0.010547
15.663844,-0.003246,-0.023535,0.010562
15.693934,-0.012835,-0.021357,0.008409
15.693934,-0.012835,-0.021357,0.008409
15.703975,-0.007504,-0.023536,0.013755
15.713984,-0.026688,-0.021323,0.010508
15.724025,0.004221,-0.022501,0.012724
15.734034,0.001006,-0.027820,0.010553
15.754085,0.003149,-0.024633,0.012711
15.754085,0.003149,-0.024633,0.012711
15.764125,-0.020306,-0.024532,0.007305
15.774135,-0.002196,-0.031029,0.013734
15.784175,-0.016031,-0.023508,0.013731
15.794185,-0.001141,-0.033153,0.010522
15.804225,-0.019237,-0.027780,0.015839
15.824275,-0.020325,-0.034169,0.012601
15.834285,-0.010731,-0.032049,0.009433
15.844325,-0.006466,-0.033146,0.012644
15.854335,-0.005395,-0.029935,0.010526
15.864375,0.003124,-0.032094,0.009471
15.874415,-0.010752,-0.040602,0.011529
15.894465,0.007396,-0.027826,0.007366
15.894465,0.007396,-0.027826,0.007366
15.904475,-0.013925,-0.033127,0.013692
15.914515,-0.008605,-0.035270,0.011560
15.924525,-0.000063,-0.029963,0.012677
15.934565,0.003121,-0.033162,0.009466
15.944575,-0.022452,-0.030943,0.009405
15.964625,-0.005395,-0.029935,0.010526
15.974666,-0.014980,-0.027773,0.011578
15.984675,0.003147,-0.023550,0.009511
15.994716,-0.013904,-0.023500,0.010533
16.004725,0.001009,-0.027830,0.012690
16.014766,-0.014961,-0.021371,0.012676
16.044863,-0.001099,-0.019280,0.012724
16.044863,-0.001099,-0.019280,0.012724
16.054873,-0.021349,-0.019214,0.012669
16.064913,0.003175,-0.013944,0.010625
16.074923,-0.004300,-0.019259,0.010579
16.084963,-0.018139,-0.013880,0.011635
16.094973,-0.011751,-0.018188,0.014836
16.105013,-0.007490,-0.018196,0.013780
16.115023,-0.019194,-0.010678,0.012715
16.125063,-0.002159,-0.017141,0.012732
16.135073,-0.018143,-0.018177,0.016955
16.145113,0.008490,-0.020379,0.012746
16.155123,-0.011748,-0.017120,0.014842
16.185213,0.001009,-0.027830,0.012690
16.185213,0.001009,-0.027830,0.012690
16.195223,-0.008565,-0.024626,0.019088
16.205263,0.009532,-0.028926,0.012708
16.215273,-0.009643,-0.027816,0.016933
16.225313,0.004201,-0.027826,0.009494
16.245364,-0.016047,-0.027765,0.010506
16.245364,-0.016047,-0.027765,0.010506
16.255404,0.002061,-0.031022,0.009473
16.265414,-0.024572,-0.028820,0.013683
16.275454,-0.013928,-0.030965,0.008361
16.285464,-0.014986,-0.028831,0.009436
16.295504,0.001009,-0.026752,0.010558
16.325564,-0.009643,-0.022431,0.007345
16.325564,-0.009643,-0.022431,0.007345
16.335604,-0.006444,-0.025675,0.013748
16.345614,-0.005359,-0.019276,0.014849
16.355654,0.018058,-0.025719,0.006338
16.365664,-0.016018,-0.021393,0.018014
16.385714,0.007404,-0.027851,0.012707
16.385714,0.007404,-0.027851,0.012707
16.395754,-0.021351,-0.020287,0.013732
16.405794,0.001017,-0.023548,0.010574
16.415804,-0.022427,-0.023482,0.012645
16.425844,-0.018173,-0.025622,0.010511
16.435854,-0.000033,-0.021440,0.016990
16.455904,-0.010702,-0.023526,0.013746
16.465945,0.019142,-0.022550,0.012765
16.475954,-0.016025,-0.025680,0.021198
16.485995,-0.004308,-0.023541,0.012695
16.496004,0.020212,-0.024719,0.019167
16.506045,-0.014978,-0.027778,0.012646
16.526095,-0.008579,-0.027814,0.015868
16.536104,0.006327,-0.031046,0.011621
16.546145,-0.007511,-0.026745,0.014808
16.556155,-0.004315,-0.027828,0.015880
16.566195,-0.009654,-0.027780,0.009456
16.576235,-0.002176,-0.026782,0.019095
16.606295,-0.008551,-0.018208,0.016982
16.606295,-0.008551,-0.018208,0.016982
16.616335,0.011673,-0.022500,0.007403
16.626345,0.004228,-0.020370,0.013802
16.636385,-0.013889,-0.017082,0.008427
16.646395,0.022346,-0.021502,0.014915
16.666445,0.005295,-0.019301,0.012742
16.666445,0.005295,-0.019301,0.012742
16.676485,-0.000022,-0.013934,0.010616
16.686495,0.005309,-0.015034,0.013830
16.696535,-0.008554,-0.016042,0.010583
16.706545,-0.000036,-0.021429,0.014854
16.716585,-0.017076,-0.014951,0.011632
16.736635,0.003164,-0.018216,0.010605
16.746676,-0.010707,-0.026739,0.015867
16.756686,0.009555,-0.022534,0.015943
16.766726,0.010610,-0.023580,0.010600
16.776736,0.005281,-0.024640,0.012717
16.786776,-0.001109,-0.025713,0.018035
16.806826,-0.023510,-0.030965,0.014744
16.816836,0.041514,-0.029055,0.018137
16.826876,-0.018193,-0.034176,0.012607
16.836886,-0.011800,-0.038498,0.019013
16.846926,0.008463,-0.027834,0.008437
16.856936,-0.016058,-0.036349,0.019012
16.876986,0.012712,-0.034266,0.010555
16.887026,-0.037363,-0.029852,0.014711
16.897036,-0.002196,-0.028873,0.009471
16.907076,-0.020307,-0.027761,0.012631
16.917116,-0.011777,-0.024570,0.009465
16.927126,-0.001112,-0.021396,0.008441
16.957217,0.003160,-0.021435,0.013794
16.967226,-0.000038,-0.021424,0.013785
16.977267,-0.001114,-0.023542,0.010568
16.987276,0.014893,-0.021503,0.020235
16.997317,-0.020289,-0.018124,0.007336
17.017367,-0.027738,-0.018136,0.014793
17.027405,0.018061,-0.024652,0.006343
17.037446,-0.021351,-0.024594,0.021189
17.047455,-0.013904,-0.023500,0.010533
17.057496,-0.021370,-0.025612,0.010502
17.067506,-0.014951,-0.021401,0.019085
17.097596,-0.012837,-0.020274,0.005210
17.107636,-0.002185,-0.028908,0.016949
17.117646,-0.022433,-0.025618,0.012635
17.127686,0.002054,-0.033153,0.008395
17.137696,-0.016029,-0.025669,0.019062
17.147736,0.004208,-0.026768,0.011635
17.157746,-0.006438,-0.023539,0.013758
17.167786,-0.002173,-0.020329,0.009512
17.177796,0.014872,-0.025745,0.013806
17.187836,-0.012822,-0.018169,0.011629
17.197846,-0.000044,-0.023560,0.013775
17.207886,0.001036,-0.014990,0.007409
17.217896,0.013840,-0.015077,0.017058
17.227936,-0.028798,-0.015996,0.014800
17.237946,0.020212,-0.019334,0.009578
17.247987,-0.013850,-0.007511,0.017018
17.257996,0.005292,-0.018213,0.008474
17.268037,-0.010680,-0.016055,0.014850
17.278077,0.001054,-0.011816,0.013834
17.298127,-0.016005,-0.016048,0.016971
17.308137,-0.006423,-0.014971,0.008457
17.318177,-0.001093,-0.020378,0.019128
17.328187,-0.027729,-0.014932,0.014808
17.338227,0.012759,-0.020413,0.017030
17.348237,-0.020288,-0.020281,0.011598
17.368287,-0.017091,-0.021369,0.013738
17.378327,0.006337,-0.029999,0.015899
17.388337,-0.014965,-0.022434,0.011603
17.398377,0.003154,-0.024649,0.015915
17.408387,-0.012844,-0.025639,0.010525
17.418427,-0.007518,-0.031032,0.017992
17.438477,-0.014985,-0.030987,0.013699
17.448518,-0.004320,-0.026735,0.010544
17.458527,-0.004324,-0.029954,0.013733
17.468568,-0.010709,-0.025656,0.012668
17.478577,-0.016057,-0.032042,0.011554
17.488618,0.002094,-0.022509,0.015923
17.508668,0.004208,-0.027846,0.013767
17.518677,0.003159,-0.023586,0.016989
17.528718,0.009562,-0.019325,0.014890
17.538727,0.004219,-0.026803,0.019113
17.548768,0.020224,-0.018296,0.015993
17.558778,-0.004277,-0.015023,0.018077
17.578828,-0.011739,-0.014994,0.016988
17.588868,0.015973,-0.016167,0.020264
17.598878,-0.014946,-0.016031,0.012701
17.608918,-0.002170,-0.023568,0.016974
17.618958,-0.023468,-0.016019,0.015883
17.628968,0.007403,-0.024617,0.006313
17.659058,-0.035210,-0.023461,0.016883
17.669068,-0.003264,-0.027786,0.006269
17.679108,-0.017110,-0.025615,0.008377
17.689118,-0.004315,-0.027828,0.015880
17.699158,-0.009643,-0.025660,0.012671
17.719208,-0.010719,-0.031011,0.015847
17.729218,0.020211,-0.022563,0.014904
17.739258,0.003153,-0.022493,0.011653
17.749268,-0.000052,-0.026764,0.013760
17.759309,-0.014962,-0.021366,0.011608
17.769318,0.014891,-0.019342,0.014905
17.789368,-0.000050,-0.025696,0.013765
17.799409,-0.013892,-0.019228,0.010553
17.809449,-0.025619,-0.020258,0.010515
17.819459,-0.028828,-0.023441,0.008355
17.829499,-0.008555,-0.019271,0.015908
17.839509,-0.025626,-0.022389,0.009437
17.859559,-0.037339,-0.020230,0.012620
17.869599,0.015923,-0.030010,0.011652
17.879609,-0.035225,-0.027723,0.014726
17.889649,-0.002182,-0.026762,0.014822
17.899659,0.001006,-0.029976,0.014816
17.909699,-0.004324,-0.031032,0.015864
17.919709,-0.013920,-0.029913,0.011570
17.929749,0.000998,-0.034258,0.016932
17.939759,0.009533,-0.030004,0.014839
17.949799,-0.020325,-0.034169,0.012601
17.959809,0.007405,-0.032163,0.021233
17.969849,0.016996,-0.028960,0.014865
17.979890,-0.021392,-0.035238,0.013661
17.999940,0.013802,-0.030038,0.019124
18.009949,-0.033111,-0.035215,0.016833
18.019990,0.006330,-0.027822,0.007363
18.030000,0.008479,-0.027885,0.019119
18.040041,-0.025639,-0.027734,0.010480
18.050050,0.007400,-0.027841,0.010571
18.070101,-0.010702,-0.021369,0.009483
18.070101,-0.010702,-0.021369,0.009483
18.090151,-0.010705,-0.022437,0.009478
18.100191,0.011684,-0.020379,0.010618
18.110201,-0.002154,-0.019312,0.020199
18.110201,-0.002154,-0.019312,0.020199
18.130251,-0.022412,-0.021377,0.019065
18.150331,0.003165,-0.019299,0.013804
18.160341,-0.003219,-0.016079,0.014870
18.170381,0.004207,-0.024612,0.007373
18.180391,-0.006416,-0.016069,0.014861
18.180391,-0.006416,-0.016069,0.014861
18.200441,-0.003241,-0.024628,0.015898
18.220491,0.007429,-0.019313,0.013816
18.230531,-0.006458,-0.027786,0.008396
18.230531,-0.006458,-0.027786,0.008396
18.250581,-0.006420,-0.012825,0.006331
18.260591,-0.013931,-0.030955,0.006224
18.260591,-0.013931,-0.030955,0.006224
18.280641,0.010613,-0.018205,0.003148
18.290682,-0.011769,-0.024595,0.014806
18.300691,-0.008569,-0.020303,0.008426
18.310732,-0.009633,-0.021383,0.011623
18.320772,-0.000031,-0.018215,0.012732
18.330782,-0.001121,-0.022443,0.004164
18.340822,-0.016010,-0.018189,0.018029
18.350832,-0.000027,-0.012840,0.005280
18.380922,0.003166,-0.014992,0.006347
18.380922,0.003166,-0.014992,0.006347
18.390932,-0.025616,-0.020268,0.012652
18.400972,-0.031995,-0.012757,0.009465
18.410982,-0.002172,-0.018178,0.006317
18.421022,-0.005363,-0.019266,0.012713
18.451082,-0.008569,-0.020303,0.008426
18.451082,-0.008569,-0.020303,0.008426
18.461122,-0.000040,-0.019263,0.008454
18.471132,-0.014962,-0.020288,0.009477
18.491213,-0.020300,-0.024552,0.011578
18.521272,-0.011775,-0.024575,0.010533
18.521272,-0.011775,-0.024575,0.010533
18.531313,-0.005391,-0.025638,0.005205
18.541322,-0.013894,-0.019223,0.009485
18.551363,-0.007520,-0.024563,0.005204
18.561373,0.005267,-0.021366,-0.002223
18.591463,0.002074,-0.023522,0.004167
18.591463,0.002074,-0.023522,0.004167
18.601473,-0.017088,-0.019223,0.011612
18.611513,-0.004316,-0.019209,-0.000103
18.621523,-0.002164,-0.016047,0.007396
18.631563,-0.011754,-0.012792,0.003112
18.671663,0.003156,-0.018190,0.005264
18.671663,0.003156,-0.018190,0.005264
18.681703,-0.007487,-0.013894,0.007391
18.691713,0.017023,-0.013964,0.005322
18.701753,-0.004315,-0.022443,0.006291
18.721803,0.004236,-0.012854,0.005292
18.721803,0.004236,-0.012854,0.005292
18.731813,-0.009643,-0.021353,0.005213
18.741853,0.002078,-0.021381,0.003109
18.751863,-0.000061,-0.025661,0.006288
18.761904,-0.009630,-0.016008,0.004171
18.771913,0.001003,-0.023503,0.000960
18.791963,0.001007,-0.022440,0.002033
18.791963,0.001007,-0.022440,0.002033
18.802004,0.016984,-0.031076,0.010582
18.812013,-0.005365,-0.016027,0.005250
18.822054,0.031913,-0.024686,0.004244
18.832063,-0.011771,-0.023512,0.011607
18.842104,-0.002187,-0.022440,0.004161
18.862154,-0.006450,-0.022426,0.004149
18.862154,-0.006450,-0.022426,0.004149
18.872194,0.007413,-0.019262,0.003134
18.882204,0.002093,-0.017119,0.005266
18.892244,-0.010727,-0.025601,0.000917
18.902254,-0.019226,-0.018118,0.005202
18.912294,0.007419,-0.019282,0.007407
18.922304,-0.024573,-0.022352,0.000895
18.932344,0.013816,-0.021464,0.012755
18.942354,-0.023490,-0.015948,0.000928
18.952394,0.024437,-0.028924,0.002067
18.962404,-0.024549,-0.017043,0.007329
18.972444,0.023379,-0.024633,-0.001120
18.982454,-0.019237,-0.024546,0.009445
18.992494,-0.007528,-0.025616,0.001994
19.002504,-0.002178,-0.019236,0.004176
19.012544,-0.000056,-0.023520,0.005230
19.022585,-0.012848,-0.023473,0.004126
19.032605,0.004193,-0.027800,0.004153
19.042646,-0.013918,-0.024533,0.003050
19.052655,-0.003271,-0.026688,-0.000135
19.062696,-0.011786,-0.024539,0.003056
19.072706,-0.001130,-0.023491,-0.000114
19.082746,-0.004357,-0.035238,0.001958
19.092756,-0.010709,-0.020271,0.003079
19.102796,-0.003257,-0.023499,0.003084
19.112806,0.006332,-0.025676,0.005237
19.122846,-0.021357,-0.015960,0.002002
19.142896,-0.008570,-0.017069,0.002032
19.142896,-0.008570,-0.017069,0.002032
19.152906,-0.014951,-0.013860,0.005234
19.162946,0.003145,-0.021389,0.004180
19.172956,0.003164,-0.013909,0.003148
19.182996,-0.017095,-0.017047,0.003077
19.193036,0.004214,-0.019247,0.002057
19.203046,-0.009626,-0.012789,0.000981
19.213086,-0.007510,-0.021365,0.006287
19.223096,-0.021378,-0.021279,-0.002296
19.233136,0.009567,-0.013955,0.008506
19.243146,-0.027765,-0.019128,-0.001235
19.253186,0.003139,-0.023525,0.004170
19.263196,-0.016025,-0.014909,0.002022
19.293287,0.015928,-0.021410,-0.000057
19.303296,-0.037363,-0.022310,0.000859
19.313337,0.013782,-0.026743,-0.000088
19.323346,-0.026696,-0.021297,0.005167
19.333387,-0.004336,-0.023455,-0.005464
19.343396,-0.004316,-0.024594,0.009486
19.353437,-0.004329,-0.023475,-0.001191
19.363477,-0.030984,-0.027666,-0.000217
19.373487,0.001016,-0.023543,0.009505
19.383527,-0.021393,-0.024463,-0.006584
19.393537,0.006337,-0.024613,0.006310
19.403577,-0.042680,-0.019099,0.002996
19.423627,-0.034139,-0.014865,0.005176
19.433637,0.008450,-0.025638,-0.004371
19.443677,-0.018173,-0.023466,0.006248
19.453687,-0.009628,-0.017091,0.007370
19.463727,-0.007519,-0.020256,-0.002253
19.473737,-0.000031,-0.017137,0.010601
19.503827,-0.019210,-0.013861,0.008427
19.503827,-0.019210,-0.013861,0.008427
19.513837,0.015932,-0.022499,0.004210
19.523877,-0.008570,-0.018147,0.004163
19.533887,-0.004303,-0.018171,0.006311
19.543927,0.005285,-0.017114,0.002070
19.563978,-0.007491,-0.012806,0.003123
19.574018,0.012740,-0.020352,0.004212
19.584028,-0.006448,-0.022431,0.005217
19.594068,-0.021369,-0.018075,-0.002281
19.604078,0.003147,-0.022472,0.007380
19.614118,-0.019231,-0.017025,-0.000134
19.634168,-0.013898,-0.015979,0.000954
19.644178,0.007404,-0.021388,0.000988
19.654218,-0.024551,-0.015960,0.004129
19.664228,0.004194,-0.023493,-0.003304
19.674268,-0.017095,-0.018125,0.005208
19.684278,-0.004327,-0.021330,-0.003317
19.704328,-0.017092,-0.017057,0.005213
19.714368,0.015927,-0.022483,0.001006
19.724408,0.002087,-0.019255,0.005256
19.734418,-0.018189,-0.025571,-0.000171
19.744458,-0.008580,-0.021346,0.003080
19.754468,-0.012854,-0.024531,0.001985
19.774518,-0.039492,-0.020157,-0.001273
19.774518,-0.039492,-0.020157,-0.001273
19.784559,0.005263,-0.025663,0.003098
19.794568,-0.029900,-0.019111,-0.003378
19.804609,-0.026706,-0.024496,0.004083
19.814618,-0.000072,-0.025625,-0.001190
19.824659,-0.027772,-0.023415,0.001949
19.854718,-0.012849,-0.024546,0.005189
19.864759,-0.007527,-0.023465,-0.001200
19.874769,0.003139,-0.023525,0.004170
19.884809,-0.024574,-0.024503,0.004089
19.894849,0.005265,-0.023512,-0.000097
19.914899,-0.018194,-0.025556,-0.003376
19.924909,-0.001133,-0.026715,0.004143
19.934949,-0.011758,-0.016011,0.006301
19.944959,-0.009661,-0.023448,-0.003342
19.954999,-0.007515,-0.025657,0.010540
19.965009,-0.005391,-0.019175,-0.006515
19.995099,0.004188,-0.026707,-0.001183
19.995099,0.004188,-0.026707,-0.001183
20.005109,-0.025625,-0.020238,0.006243
20.015149,0.001001,-0.021342,-0.004371
20.025159,-0.012851,-0.024541,0.004121
20.035244,-0.005386,-0.022424,0.003084
20.065335,-0.010728,-0.026674,0.001981
20.065335,-0.010728,-0.026674,0.001981
20.075345,-0.010730,-0.024513,-0.003350
20.085385,-0.017108,-0.020235,-0.000143
20.095395,-0.002196,-0.023487,-0.000117
20.105435,-0.016056,-0.025583,0.000903
20.125485,-0.000064,-0.024572,0.002020
20.135495,-0.017109,-0.023464,0.005183
20.145535,0.002068,-0.021350,-0.003300
20.155545,-0.028836,-0.022338,0.000883
20.165585,0.006337,-0.023535,0.004179
20.175595,-0.008587,-0.024555,0.004133
20.205685,0.011659,-0.026762,0.005247
20.205685,0.011659,-0.026762,0.005247
20.215695,-0.022450,-0.026641,0.003017
20.225735,-0.007542,-0.030956,0.001969
20.235745,-0.017108,-0.023469,0.006251
20.245785,-0.005384,-0.022429,0.004152
20.265835,-0.000067,-0.025640,0.002015
20.275876,-0.013904,-0.022422,0.008401
20.285885,-0.007520,-0.023485,0.003073
20.295926,-0.011789,-0.025607,0.003051
20.305935,-0.011783,-0.020242,-0.002265
20.315976,-0.003261,-0.025640,0.004143
20.346035,-0.028827,-0.021290,0.005161
20.346035,-0.028827,-0.021290,0.005161
20.356076,0.001001,-0.021342,-0.004371
20.366085,-0.017095,-0.017047,0.003077
20.376126,-0.000051,-0.019228,0.000977
20.386136,-0.002188,-0.019206,-0.002233
20.416226,-0.001120,-0.019214,-0.001162
20.416226,-0.001120,-0.019214,-0.001162
20.426266,-0.019237,-0.019160,-0.000144
20.436276,-0.006459,-0.022396,-0.002260
20.446316,-0.027762,-0.018060,-0.001230
20.456326,-0.013911,-0.021324,0.001997
20.466366,-0.024583,-0.022322,-0.005515
20.476376,-0.014983,-0.022378,-0.000147
20.486416,-0.024566,-0.020221,0.001973
20.496426,0.003135,-0.023510,0.000966
20.506466,-0.037371,-0.026592,0.002976
20.516476,-0.003268,-0.025620,-0.000130
20.526516,-0.018174,-0.021310,0.001985
20.546566,-0.010722,-0.023460,-0.000141
20.556576,-0.010713,-0.021334,0.002006
20.566617,-0.016023,-0.017070,0.007352
20.576626,-0.027773,-0.020180,-0.004445
20.586667,-0.001125,-0.023506,0.003090
20.596707,-0.033064,-0.011665,0.005194
20.606717,0.014855,-0.022460,-0.003270
20.616757,-0.040543,-0.019121,0.006207
20.626767,-0.004321,-0.019194,-0.003307
20.636807,-0.019241,-0.021301,0.000914
20.646817,-0.021366,-0.018086,-0.000145
20.656857,-0.000059,-0.019202,-0.004364
20.666867,-0.024576,-0.024498,0.003021
20.686917,-0.013922,-0.021288,-0.005480
20.696957,-0.032023,-0.021285,0.006220
20.706967,0.020187,-0.023565,0.001013
20.717007,-0.033105,-0.025538,0.002992
20.727017,-0.006457,-0.025635,0.005202
20.737057,0.010601,-0.022476,0.003128
20.757107,0.014858,-0.026777,0.006324
20.767148,-0.019237,-0.019160,-0.000144
20.777157,0.006338,-0.023540,0.005247
20.787198,0.005286,-0.018192,0.004201
20.797207,0.001012,-0.020299,0.000975
20.807248,-0.037327,-0.012729,0.007314
20.827298,-0.024543,-0.014907,0.007339
20.837307,-0.016036,-0.015952,-0.003324
20.847348,-0.012832,-0.017060,0.003088
20.857357,-0.025619,-0.013795,-0.001204
20.867398,-0.028820,-0.015925,-0.000155
20.877408,-0.012818,-0.009565,-0.001149
20.887448,-0.017101,-0.017026,-0.001196
20.897458,-0.034158,-0.019112,-0.000185
20.907498,-0.008559,-0.011720,-0.000079
20.917508,-0.013893,-0.013838,-0.000104
20.927548,-0.024559,-0.015934,-0.001211
20.937588,-0.003231,-0.012810,0.000999
20.947598,-0.005379,-0.017059,-0.002232
20.967648,-0.006435,-0.012779,-0.003283
20.977688,-0.004314,-0.019214,0.000965
20.987698,-0.028814,-0.015946,0.004118
20.997738,0.013785,-0.020290,-0.009672
21.007748,-0.042677,-0.016953,0.000870
21.017788,-0.019242,-0.018067,-0.005480
21.037831,-0.056543,-0.020107,-0.000251
21.047841,-0.030968,-0.015868,-0.010843
21.057881,-0.012846,-0.018093,-0.004394
21.067891,-0.052279,-0.015814,-0.007697
21.077932,-0.009671,-0.024496,-0.007620
21.087941,-0.028840,-0.021250,-0.003385
21.097982,-0.040569,-0.019041,-0.010884
21.107991,-0.016060,-0.022339,-0.007628
21.118032,-0.033102,-0.019085,-0.006591
21.128072,-0.011812,-0.022302,-0.018298
21.138082,-0.021378,-0.020201,-0.004428
21.148122,-0.011785,-0.017003,-0.009727
21.158132,-0.006460,-0.019161,-0.008654
21.188222,-0.018184,-0.019123,-0.008686
21.188222,-0.018184,-0.019123,-0.008686
21.198232,0.001022,-0.011715,-0.007530
21.208272,0.007407,-0.010628,-0.016053
21.218282,-0.020317,-0.021267,-0.005498
21.228322,-0.000043,-0.008483,-0.012859
21.238332,-0.012833,-0.010592,-0.009699
21.248372,-0.018158,-0.007356,-0.012904
21.258382,0.001025,-0.008491,-0.011788
21.268422,-0.018138,-0.004188,-0.005411
21.278432,-0.009633,-0.007379,-0.013948
21.288472,0.007414,-0.010648,-0.011780
21.298513,-0.027749,-0.006252,-0.013993
21.308522,0.009562,-0.006398,-0.008550
21.318563,0.004238,0.000067,-0.017079
21.328572,-0.010700,-0.012760,-0.004363
21.338613,-0.011763,-0.007377,-0.012886
21.348622,0.006354,-0.008509,-0.011773
21.358663,-0.036247,0.002304,-0.010771
21.368672,0.013811,-0.008523,-0.013889
21.378713,-0.002159,-0.005292,-0.008577
21.388723,-0.026681,-0.004109,-0.016116
21.398763,0.020210,-0.007481,-0.012798
21.408773,-0.008554,-0.004193,-0.010726
21.418813,-0.007524,-0.013778,-0.017177
21.428823,-0.003240,-0.009550,-0.010736
21.438863,-0.010697,-0.009536,-0.008620
21.468953,-0.002201,-0.018087,-0.012910
21.478963,0.009498,-0.026664,-0.013987
21.489003,-0.022449,-0.020183,-0.007635
21.499013,0.008440,-0.023451,-0.015043
21.509053,0.002039,-0.027722,-0.010808
21.539113,-0.016076,-0.026596,-0.010852
21.549153,-0.012881,-0.025523,-0.014043
21.559163,-0.022485,-0.029763,-0.014090
21.569203,-0.012885,-0.027664,-0.012985
21.579213,-0.034194,-0.022230,-0.018359
21.589254,-0.016089,-0.027633,-0.017267
21.599263,-0.024600,-0.024422,-0.013002
21.609304,-0.009682,-0.023382,-0.017229
21.619313,-0.016078,-0.025513,-0.014052
21.629354,-0.020341,-0.024421,-0.016195
21.639394,-0.009676,-0.023403,-0.012956
21.649404,-0.004347,-0.023420,-0.012941
21.679494,-0.008601,-0.022358,-0.008675
21.689504,-0.009674,-0.024486,-0.009756
21.699544,-0.006470,-0.018053,-0.017195
21.709554,-0.006452,-0.014880,-0.010770
21.719594,-0.022453,-0.016938,-0.016165
21.729604,-0.006469,-0.016980,-0.018258
21.739644,-0.027773,-0.014795,-0.014034
21.749654,-0.019268,-0.017986,-0.022571
21.759694,-0.038424,-0.014781,-0.009790
21.769704,-0.010718,-0.010549,-0.020376
21.779744,-0.011783,-0.011623,-0.018247
21.789754,-0.043758,-0.013670,-0.015141
21.809835,-0.025616,-0.004108,-0.017182
21.819844,-0.020302,-0.009465,-0.017192
21.829885,-0.013888,-0.004161,-0.013945
21.839894,-0.002177,-0.010622,-0.010738
21.849935,-0.007494,-0.006333,-0.010733
21.859944,0.003167,-0.005299,-0.010698
21.890035,0.010611,-0.010658,-0.011771
21.900045,0.009556,-0.010690,-0.004297
21.910085,-0.011751,-0.004183,-0.010734
21.920095,0.013799,-0.016023,-0.008583
21.930135,-0.013897,-0.010594,-0.008634
21.950185,-0.005363,-0.006340,-0.010727
21.960195,0.011662,-0.016001,-0.011794
21.970235,-0.021373,-0.014831,-0.010811
21.980245,-0.010713,-0.014871,-0.009714
21.990285,0.002088,-0.010641,-0.009658
22.000325,-0.022438,-0.012677,-0.014009
22.020375,-0.004335,-0.019148,-0.012921
22.030412,-0.008589,-0.017009,-0.010786
22.040452,-0.008591,-0.015925,-0.013986
22.040452,-0.008591,-0.015925,-0.013986
22.060502,-0.003271,-0.016990,-0.018249
22.070512,-0.003266,-0.019162,-0.010782
22.090562,-0.004321,-0.012730,-0.015027
22.090562,-0.004321,-0.012730,-0.015027
22.110612,-0.003255,-0.013812,-0.012893
22.110612,-0.003255,-0.013812,-0.012893
22.130662,-0.000060,-0.017046,-0.008627
22.140703,0.002076,-0.012756,-0.013941
22.150712,-0.007531,-0.019143,-0.011862
22.150712,-0.007531,-0.019143,-0.011862
22.160753,-0.012833,-0.010592,-0.009699
22.170793,0.009520,-0.017037,-0.017146
22.180803,-0.018161,-0.013809,-0.003320
22.190843,-0.000060,-0.013812,-0.015020
22.200853,0.008466,-0.019225,-0.005409
22.210893,-0.027763,-0.013748,-0.009756
22.250993,-0.009660,-0.018068,-0.011863
22.250993,-0.009660,-0.018068,-0.011863
22.261003,-0.041593,-0.006242,-0.006554
22.271043,0.029783,-0.012836,-0.016002
22.281053,-0.034161,-0.015873,-0.007647
22.311143,-0.027747,-0.009491,-0.006531
22.311143,-0.027747,-0.009491,-0.006531
22.321153,0.013787,-0.012754,-0.022455
22.331193,-0.000066,-0.022411,-0.003311
22.341234,-0.023481,-0.005203,-0.012908
22.351243,0.040440,-0.012866,-0.017041
22.381334,0.041533,-0.008648,-0.006335
22.381334,0.041533,-0.008648,-0.006335
22.391344,-0.014981,-0.015920,-0.010799
22.401384,0.011650,-0.017039,-0.018208
22.411394,0.014871,-0.014969,-0.006439
22.421434,-0.020306,-0.012684,-0.014003
22.451494,-0.018185,-0.015889,-0.015080
22.451494,-0.018185,-0.015889,-0.015080
22.461534,0.010594,-0.018144,-0.009670
22.471544,-0.028838,-0.015870,-0.011905
22.481584,0.007384,-0.019171,-0.016093
22.491594,0.002059,-0.022398,-0.007578
22.511674,0.003098,-0.029857,-0.011883
22.521684,0.008442,-0.025612,-0.009712
22.531724,0.005257,-0.019179,-0.012895
22.541734,0.022272,-0.033118,-0.012914
22.551774,-0.010742,-0.027706,-0.005502
22.561784,0.015895,-0.026689,-0.012901
22.601884,0.004170,-0.029880,-0.007607
22.601884,0.004170,-0.029880,-0.007607
22.611925,-0.009679,-0.023392,-0.015092
22.621934,0.012691,-0.027737,-0.015051
22.631975,-0.025676,-0.029773,-0.009826
22.641984,0.004183,-0.019151,-0.018239
22.652025,-0.005400,-0.021301,-0.008661
22.662034,-0.018205,-0.024443,-0.012985
22.672075,0.000995,-0.018092,-0.013970
22.682115,-0.009647,-0.015952,-0.007580
22.692125,-0.001145,-0.020211,-0.016122
22.702165,-0.009649,-0.015947,-0.008648
22.732225,-0.010715,-0.014866,-0.010782
22.732225,-0.010715,-0.014866,-0.010782
22.742265,0.010598,-0.013847,-0.014991
22.752275,-0.016022,-0.007378,-0.009693
22.762315,0.019108,-0.019209,-0.016061
22.772325,-0.014954,-0.010621,-0.002228
22.792375,0.004195,-0.020264,-0.008630
22.792375,0.004195,-0.020264,-0.008630
22.802415,-0.010690,-0.007405,-0.007542
22.812425,0.028682,-0.024570,-0.018197
22.822465,-0.020305,-0.016996,-0.005478
22.832475,-0.000053,-0.011681,-0.013942
22.842515,0.011650,-0.018117,-0.016077
22.862565,-0.011781,-0.013784,-0.012916
22.872606,0.017000,-0.012815,-0.011764
22.882616,-0.022446,-0.016958,-0.011893
22.892656,-0.021378,-0.014816,-0.014016
22.902666,0.020194,-0.012815,-0.013892
22.912706,-0.024554,-0.010564,-0.007595
22.942766,-0.013901,-0.009506,-0.012902
22.942766,-0.013901,-0.009506,-0.012902
22.952806,-0.004329,-0.017012,-0.012911
22.962816,0.015938,-0.016056,-0.003237
22.972856,-0.024568,-0.011597,-0.015078
22.982866,0.020169,-0.022432,-0.012869
23.002916,0.009520,-0.019193,-0.012883
23.002916,0.009520,-0.019193,-0.012883
23.012956,0.006325,-0.021344,-0.007561
23.022966,-0.000060,-0.017046,-0.008627
23.033017,0.023367,-0.023520,-0.010729
23.043057,-0.000075,-0.024537,-0.005457
23.053067,0.008461,-0.018132,-0.010745
23.073117,-0.004341,-0.025591,-0.005474
23.083158,-0.013933,-0.021253,-0.012958
23.093167,0.011666,-0.018168,-0.005395
23.103208,0.006334,-0.017062,-0.009677
23.113217,-0.008602,-0.024509,-0.005481
23.123258,-0.021371,-0.016992,-0.005481
23.143308,-0.005380,-0.014903,-0.006495
23.153317,-0.002198,-0.021326,-0.005448
23.163358,0.008507,-0.007508,0.001056
23.173367,0.012755,-0.009628,-0.005351
23.183408,-0.003237,-0.012790,-0.003274
23.193418,-0.005350,-0.004224,-0.006444
23.213498,-0.010694,-0.008468,-0.008615
23.223508,-0.019210,-0.007398,-0.003293
23.233548,0.030891,-0.001123,-0.009534
23.243558,-0.029863,-0.006301,-0.002249
23.253598,-0.020283,-0.004140,-0.013962
23.263608,0.037293,-0.000091,-0.006307
23.283658,0.004219,-0.008491,-0.013915
23.283658,0.004219,-0.008491,-0.013915
23.293698,0.003195,0.002151,-0.005322
23.303708,-0.024535,-0.002006,-0.010759
23.313748,0.008499,-0.004249,-0.010679
23.323758,-0.004283,-0.003155,-0.007504
23.333798,-0.007487,-0.002046,-0.013917
23.353848,-0.011747,-0.004198,-0.007530
23.363858,-0.013907,-0.009485,-0.017175
23.373898,-0.007498,-0.010630,-0.005412
23.383939,-0.009617,-0.004200,-0.008592
23.393949,0.012724,-0.018146,-0.010733
23.403989,-0.020306,-0.019147,-0.002283
23.424039,-0.005380,-0.014903,-0.006495
23.434049,-0.000054,-0.015989,-0.006485
23.444089,-0.008565,-0.011699,-0.004352
23.454099,0.000997,-0.024561,-0.001182
23.464139,-0.032033,-0.018021,-0.006583
23.474149,0.005272,-0.015996,-0.008607
23.494199,-0.024582,-0.021249,-0.006578
23.494199,-0.024582,-0.021249,-0.006578
23.504239,0.007379,-0.025619,-0.007578
23.514249,-0.016055,-0.021276,-0.006554
23.524289,-0.001128,-0.018111,-0.008635
23.534299,-0.012841,-0.019186,0.000942
23.544339,0.006319,-0.023480,-0.007571
23.564389,0.002076,-0.019220,-0.002222
23.574429,-0.002205,-0.021306,-0.009721
23.584439,-0.002178,-0.017080,-0.000087
23.594480,-0.000062,-0.019192,-0.006500
23.604489,-0.013916,-0.019152,-0.005470
23.614530,-0.003247,-0.017066,-0.002226
23.634580,-0.029902,-0.015871,-0.010840
23.644589,-0.003245,-0.014920,-0.004352
23.654630,0.009515,-0.024563,-0.006499
23.664639,-0.032041,-0.019073,-0.009793
23.674680,0.001001,-0.017035,-0.011828
23.684689,-0.000070,-0.022401,-0.005447
23.714780,-0.007538,-0.024508,-0.006546
23.714780,-0.007538,-0.024508,-0.006546
23.724790,0.002072,-0.015975,-0.010752
23.734830,-0.008588,-0.017014,-0.009718
23.744870,-0.003275,-0.023444,-0.008666
23.754880,-0.004339,-0.021289,-0.011863
23.774930,-0.009664,-0.020209,-0.010804
23.774930,-0.009664,-0.020209,-0.010804
23.784970,0.006324,-0.022417,-0.006498
23.794980,0.002055,-0.024539,-0.006520
23.805020,-0.005404,-0.024520,-0.005472
23.815030,0.010575,-0.026702,-0.006506
23.825070,0.013780,-0.025660,-0.003288
23.845120,0.005231,-0.030947,-0.008678
23.855130,-0.004346,-0.027732,-0.004416
23.865170,-0.001150,-0.027737,-0.005475
23.875180,0.007363,-0.030954,-0.008672
23.885220,-0.009678,-0.028783,-0.004436
23.895230,-0.000084,-0.027741,-0.005473
23.915311,-0.013945,-0.030910,-0.003389
23.925321,0.011619,-0.034176,-0.007607
23.935361,0.005217,-0.038442,-0.004440
23.945371,-0.027825,-0.036174,-0.009862
23.955411,-0.006495,-0.033055,-0.006584
23.965421,-0.001184,-0.039479,-0.006599
23.995511,0.016942,-0.036330,-0.007603
24.005521,-0.028891,-0.036171,-0.009865
24.015561,-0.008658,-0.042644,-0.009840
24.025571,0.002019,-0.037354,-0.006580
24.035649,0.005214,-0.037354,-0.008708
24.055699,0.008419,-0.038468,-0.001227
24.065709,-0.000109,-0.035201,-0.008713
24.075749,0.002034,-0.033092,-0.004424
24.085790,-0.004362,-0.031989,-0.007641
24.095799,0.014807,-0.037391,-0.007613
24.105840,-0.011804,-0.028791,-0.001237
24.125890,-0.011812,-0.032000,-0.000184
24.135899,0.004161,-0.033084,-0.007622
24.145940,0.007367,-0.029891,-0.007599
24.155949,-0.016070,-0.027694,-0.004448
24.165990,0.014834,-0.028857,-0.005437
24.175999,-0.001157,-0.029868,-0.006554
24.206090,-0.001157,-0.030946,-0.004422
24.216100,-0.027794,-0.025500,-0.008743
24.226140,0.008461,-0.021366,-0.004351
24.236150,0.003131,-0.020266,-0.007565
24.246190,0.002050,-0.024524,-0.009724
24.266240,0.010598,-0.017081,-0.008597
24.276280,-0.005396,-0.021316,-0.005457
24.286290,0.004192,-0.021332,-0.008635
24.296330,-0.004329,-0.018090,-0.010780
24.306340,0.011649,-0.025653,-0.003294
24.316380,-0.003259,-0.017031,-0.009703
24.336430,0.003116,-0.025605,-0.007590
24.346440,-0.002219,-0.025568,-0.011877
24.356480,-0.019257,-0.022329,-0.007636
24.366490,-0.000085,-0.024507,-0.011867
24.376530,-0.025668,-0.027643,-0.008747
24.386540,-0.017141,-0.024441,-0.014050
24.406590,-0.026745,-0.032989,-0.006639
24.416631,-0.010747,-0.025535,-0.012969
24.426671,0.004165,-0.030943,-0.008681
24.436681,-0.009681,-0.028773,-0.006572
24.446721,-0.012890,-0.030878,-0.010864
24.456731,0.005251,-0.028856,0.000946
24.476781,0.018015,-0.035280,-0.004390
24.486821,-0.001150,-0.028815,-0.003344
24.496831,0.005238,-0.030967,-0.004405
24.506871,0.000974,-0.029875,-0.006548
24.516881,-0.019257,-0.024485,-0.003374
24.526921,-0.003271,-0.025610,-0.002267
24.546971,-0.016036,-0.015952,-0.003324
24.556981,0.010588,-0.020280,-0.009681
24.567021,-0.016037,-0.015947,-0.004393
24.577031,-0.021369,-0.015919,-0.006544
24.587071,-0.004314,-0.013829,-0.008623
24.597112,-0.012836,-0.013816,-0.005442
24.617162,0.001013,-0.011685,-0.013939
24.627171,-0.027749,-0.008408,-0.009730
24.637212,0.003144,-0.010614,-0.016065
24.647221,-0.003243,-0.009540,-0.012873
24.657262,-0.010699,-0.009531,-0.009689
24.667271,-0.000042,-0.009561,-0.010727
24.677312,0.010596,-0.015998,-0.011797
24.687321,0.003146,-0.012775,-0.010734
24.697362,0.002066,-0.017033,-0.012893
24.707372,0.000995,-0.022400,-0.006512
24.717412,-0.000067,-0.019177,-0.009705
24.727422,0.016980,-0.021368,-0.009668
24.737462,-0.007533,-0.023445,-0.005473
24.757512,0.005246,-0.026685,-0.006521
24.767522,-0.005410,-0.027734,-0.003351
24.777562,0.016965,-0.027786,-0.007562
24.787602,0.004186,-0.024546,-0.006514
24.797612,-0.008605,-0.023421,-0.009749
24.807652,0.008444,-0.028852,-0.002250
24.827702,-0.010738,-0.025565,-0.006560
24.837712,0.002058,-0.025627,-0.002252
24.847752,-0.008582,-0.019185,-0.002251
24.857762,0.016970,-0.025645,-0.008620
24.867802,-0.011784,-0.021315,-0.001202
24.877812,0.009507,-0.024538,-0.011840
24.887852,-0.003274,-0.026678,-0.002272
24.897862,-0.005401,-0.023452,-0.005467
24.907903,0.008452,-0.023492,-0.006497
24.917912,0.003125,-0.023479,-0.005444
24.927953,-0.001128,-0.019189,-0.006503
24.937962,0.023373,-0.023540,-0.006456
24.948003,-0.018187,-0.021269,-0.006560
24.968053,0.022322,-0.018197,-0.006434
24.968053,0.022322,-0.018197,-0.006434
24.978093,-0.018169,-0.014862,-0.006530
24.988103,0.007380,-0.021312,-0.015035
24.998143,-0.011780,-0.018096,-0.004391
25.008153,-0.013915,-0.015923,-0.010796
25.018193,-0.016056,-0.019120,-0.010817
25.038240,-0.020324,-0.019091,-0.014033
25.048250,-0.035235,-0.017995,-0.009796
25.058290,-0.034173,-0.017988,-0.011930
25.068300,-0.008600,-0.018051,-0.016132
25.078340,-0.017117,-0.016976,-0.011878
25.088350,-0.023506,-0.016975,-0.007623
25.098390,-0.004335,-0.018070,-0.015052
25.108400,-0.014979,-0.017003,-0.007599
25.118440,-0.016043,-0.013775,-0.011860
25.128481,-0.001136,-0.019164,-0.011844
25.138490,-0.024580,-0.019098,-0.009772
25.148531,-0.014986,-0.014827,-0.016135
25.158540,-0.019244,-0.018062,-0.006548
25.178590,-0.013916,-0.019152,-0.005470
25.188631,-0.008598,-0.019134,-0.012933
25.198641,-0.020328,-0.022310,-0.010844
25.208681,-0.025647,-0.021245,-0.006581
25.218691,-0.007554,-0.027686,-0.011902
25.228731,-0.034179,-0.024431,-0.004483
25.248781,-0.022479,-0.030857,-0.008754
25.258791,-0.019273,-0.028741,-0.006599
25.268831,-0.017160,-0.031922,-0.013017
25.278841,-0.041648,-0.024382,-0.009844
25.288881,-0.005439,-0.033028,-0.012990
25.298921,-0.024592,-0.024447,-0.007661
25.318971,-0.006482,-0.027710,-0.007626
25.328981,-0.029933,-0.027624,-0.009827
25.339021,-0.006500,-0.033039,-0.009788
25.349031,-0.018191,-0.022332,-0.007633
25.359071,-0.003271,-0.023454,-0.006529
25.369081,-0.003276,-0.024517,-0.007603
25.399172,-0.003258,-0.018109,-0.007572
25.409181,-0.005371,-0.016007,0.000978
25.419222,0.009542,-0.014952,-0.006454
25.429231,-0.001113,-0.016005,-0.002215
25.439272,0.006356,-0.011748,-0.004311
25.459322,-0.003243,-0.014925,-0.003284
25.469362,0.008474,-0.014943,-0.007525
25.479372,-0.002180,-0.017075,-0.001155
25.489412,0.006343,-0.016014,-0.005399
25.499422,-0.001119,-0.017063,-0.004357
25.509462,0.014863,-0.021407,-0.000060
25.519472,-0.009648,-0.018103,-0.004385
25.529512,-0.005378,-0.014908,-0.005426
25.539522,0.016999,-0.017122,-0.004307
25.549562,-0.008587,-0.019170,-0.005455
25.559572,-0.008589,-0.019165,-0.006524
25.569612,-0.024555,-0.012715,-0.004401
25.579622,0.012722,-0.019219,-0.009670
25.599672,-0.019250,-0.019120,-0.008689
25.609712,0.004192,-0.020254,-0.010766
25.619722,-0.020310,-0.018059,-0.006551
25.629762,-0.010729,-0.022361,-0.006545
25.639772,-0.002194,-0.018107,-0.008637
25.649812,-0.001128,-0.018111,-0.008635
25.679903,-0.011779,-0.014867,-0.009717
25.689912,-0.008595,-0.021300,-0.006534
25.699953,-0.014984,-0.015910,-0.012935
25.709963,-0.008586,-0.018097,-0.006519
25.720003,-0.012862,-0.022350,-0.007619
25.730013,-0.026715,-0.019080,-0.011914
25.740053,-0.023489,-0.011641,-0.006529
25.750063,0.016976,-0.020280,-0.013936
25.760103,-0.058688,-0.022211,-0.005608
25.770113,-0.003264,-0.020245,-0.007582
25.780153,-0.009660,-0.018068,-0.011863
25.790163,-0.037358,-0.016940,-0.005524
25.800203,-0.009668,-0.022350,-0.009746
25.800203,-0.009668,-0.022350,-0.009746
25.820253,-0.027763,-0.014826,-0.007624
25.830293,-0.007527,-0.020231,-0.007594
25.840303,-0.007503,-0.013844,-0.003291
25.840303,-0.007503,-0.013844,-0.003291
25.860353,-0.022444,-0.019120,-0.006562
25.870393,-0.002179,-0.013846,-0.006481
25.880403,-0.016031,-0.013811,-0.004382
25.880403,-0.016031,-0.013811,-0.004382
25.900453,-0.006440,-0.012764,-0.006487
25.910494,-0.008567,-0.011694,-0.005420
25.920503,0.009540,-0.014947,-0.007522
25.930544,-0.031998,-0.007362,-0.002260
25.930544,-0.031998,-0.007362,-0.002260
25.950594,0.002106,-0.006389,-0.005365
25.960603,-0.010714,-0.017022,-0.006519
25.970644,-0.012825,-0.010617,-0.004359
25.980653,0.004217,-0.011716,-0.009658
25.990694,-0.035209,-0.010540,-0.005488
25.990694,-0.035209,-0.010540,-0.005488
26.010744,-0.012837,-0.014889,-0.004379
26.010744,-0.012837,-0.014889,-0.004379
26.020784,-0.020310,-0.015903,-0.010813
26.030794,-0.006457,-0.018094,-0.008649
26.040881,-0.002185,-0.015982,-0.006491
26.050891,0.002054,-0.022383,-0.010782
26.060931,-0.009652,-0.021322,-0.001196
26.070941,-0.001139,-0.021310,-0.009718
26.080981,0.009518,-0.024573,-0.004363
26.090991,-0.000078,-0.025605,-0.005462
26.101031,0.009508,-0.026694,-0.007577
26.111041,-0.018183,-0.022358,-0.002292
26.121081,0.019116,-0.020312,-0.008589
26.131091,-0.008605,-0.028806,-0.000160
26.141131,-0.016067,-0.025548,-0.006575
26.151141,0.009505,-0.027762,-0.007583
26.161181,-0.036304,-0.024445,-0.000216
26.171222,0.005234,-0.028801,-0.010804
26.181231,-0.007535,-0.028825,0.003047
26.191272,-0.015003,-0.025546,-0.007640
26.201282,-0.004355,-0.028780,-0.008694
26.211322,-0.019251,-0.025578,0.001962
26.221332,-0.011805,-0.026635,-0.005500
26.241382,-0.026717,-0.025539,-0.001263
26.241382,-0.026717,-0.025539,-0.001263
26.251422,0.011631,-0.029905,-0.007587
26.261432,-0.006471,-0.028823,0.001982
26.271472,-0.010735,-0.024497,-0.006555
26.281482,0.005251,-0.026700,-0.003316
26.291522,0.000990,-0.027770,-0.000129
26.301532,-0.012874,-0.026621,-0.007639
26.311572,0.011663,-0.024621,0.004189
26.321582,-0.002203,-0.022389,-0.006521
26.331622,-0.005412,-0.027729,-0.004419
26.341662,-0.006445,-0.017056,-0.002235
26.351672,0.010594,-0.019222,-0.007539
26.361712,-0.021392,-0.027697,-0.000190
26.381762,0.003143,-0.019228,-0.001150
26.391772,-0.028858,-0.026579,-0.005547
26.401813,0.010575,-0.024546,-0.010769
26.411822,-0.016038,-0.018098,-0.001198
26.421863,0.013766,-0.027771,-0.008639
26.431872,-0.021384,-0.022337,-0.004438
26.451922,0.005262,-0.021351,-0.005428
26.451922,0.005262,-0.021351,-0.005428
26.461963,-0.011786,-0.021310,-0.002270
26.471972,-0.007514,-0.015964,-0.006506
26.482013,0.020184,-0.022477,-0.003255
26.492022,-0.025636,-0.020202,-0.001235
26.502063,0.008460,-0.022439,-0.003287
26.522113,0.003136,-0.023515,0.002034
26.532153,-0.007530,-0.023455,-0.003336
26.542163,0.021256,-0.021423,-0.001111
26.552203,-0.000056,-0.020291,-0.000096
26.562213,0.004185,-0.027775,-0.001188
26.572253,0.002077,-0.019225,-0.001153
26.602313,0.008466,-0.021381,-0.001146
26.602313,0.008466,-0.021381,-0.001146
26.612353,0.012758,-0.015023,0.006373
26.622363,0.017007,-0.014991,-0.003229
26.632403,0.026593,-0.021465,0.004245
26.642413,0.002100,-0.012832,0.002082
26.672503,0.001023,-0.012793,-0.005399
26.672503,0.001023,-0.012793,-0.005399
26.682544,0.032989,-0.019335,0.001068
26.692553,-0.001111,-0.016010,-0.001147
26.702594,0.007413,-0.016033,-0.002192
26.712604,0.023410,-0.016115,0.004261
26.732654,0.006349,-0.016035,-0.001127
26.742694,0.001020,-0.014939,-0.003272
26.752704,0.012752,-0.015003,0.002101
26.762744,0.009543,-0.016035,-0.003254
26.772754,0.013797,-0.022482,0.002068
26.782794,0.009533,-0.019234,-0.004337
26.802844,-0.003258,-0.019187,-0.005441
26.802844,-0.003258,-0.019187,-0.005441
26.812854,0.012721,-0.025677,0.000982
26.822894,-0.008577,-0.020278,0.003085
26.832904,0.016990,-0.019248,-0.006453
26.842944,-0.003261,-0.025640,0.004143
26.852954,-0.009666,-0.023433,-0.006547
26.873034,-0.013929,-0.024497,-0.004427
26.883044,-0.018198,-0.026619,-0.004449
26.893084,0.006329,-0.024588,0.000969
26.903094,-0.000086,-0.027736,-0.006541
26.913135,-0.009666,-0.025589,-0.002284
26.923144,-0.001145,-0.026674,-0.004402
26.943194,-0.002210,-0.026676,-0.003337
26.953235,0.003122,-0.025625,-0.003317
26.963244,-0.016043,-0.020239,-0.000140
26.973285,0.014849,-0.023518,-0.005411
26.983294,-0.001120,-0.021370,0.003100
26.993335,0.006311,-0.029918,-0.001192
27.023395,0.011648,-0.027804,-0.000099
27.033454,0.003137,-0.025671,0.006297
27.043494,0.014845,-0.027815,-0.000091
27.053504,-0.007524,-0.025626,0.004131
27.063544,0.022301,-0.029980,0.000988
27.083594,-0.000064,-0.024572,0.002020
27.083594,-0.000064,-0.024572,0.002020
27.093604,0.007385,-0.029946,0.004152
27.103644,-0.005396,-0.026701,0.004132
27.113654,0.014836,-0.029940,-0.002237
27.123694,-0.010717,-0.024553,0.005195
27.133704,0.003124,-0.025631,-0.002249
27.163794,0.014851,-0.025679,-0.000080
27.163794,0.014851,-0.025679,-0.000080
27.173804,-0.013917,-0.023460,0.001987
27.183844,-0.008585,-0.019175,-0.004387
27.193854,0.013807,-0.019283,0.003152
27.203894,-0.002189,-0.019201,-0.003302
27.223945,0.012720,-0.023521,-0.003281
27.223945,0.012720,-0.023521,-0.003281
27.233985,-0.012854,-0.024531,0.001985
27.243995,0.003153,-0.020336,0.007390
27.254035,0.035118,-0.017181,-0.004257
27.264045,-0.000047,-0.022472,0.009507
27.274085,0.001012,-0.020299,0.000975
27.294135,-0.013899,-0.022437,0.011606
27.294135,-0.013899,-0.022437,0.011606
27.304145,0.020176,-0.028915,0.003124
27.314185,0.021268,-0.024692,0.012761
27.324195,0.002058,-0.031012,0.007336
27.334235,0.006307,-0.033137,0.001997
27.344245,0.012734,-0.028951,0.015921
27.364295,0.004177,-0.038520,0.012648
27.364295,0.004177,-0.038520,0.012648
27.374335,-0.000080,-0.037448,0.014778
27.384375,0.021226,-0.036409,0.006296
27.394385,0.004178,-0.038525,0.013716
27.404426,0.003103,-0.038491,0.007304
27.414435,0.000984,-0.037447,0.013712
27.434485,0.004172,-0.037427,0.007312
27.434485,0.004172,-0.037427,0.007312
27.444526,-0.000075,-0.034234,0.012656
27.454535,0.016950,-0.038511,0.002001
27.464576,-0.006468,-0.033141,0.011576
27.474585,0.008440,-0.037456,0.010528
27.484626,0.009507,-0.035308,0.007337
27.504676,0.015912,-0.031052,0.006306
27.514686,0.011644,-0.034257,0.009484
27.524726,-0.004331,-0.028856,0.007329
27.534736,0.019119,-0.026786,0.005267
27.544776,0.008462,-0.028907,0.009501
27.554816,-0.003265,-0.025630,0.002006
27.584876,-0.010712,-0.021339,0.003074
27.594916,-0.021362,-0.020252,0.006254
27.604926,0.011666,-0.023553,0.004194
27.614966,-0.023484,-0.013812,0.000938
27.624976,-0.003247,-0.020300,0.004168
27.645026,-0.008578,-0.019200,0.000954
27.655066,-0.021347,-0.017068,0.010542
27.665076,0.010602,-0.019247,-0.002198
27.675116,-0.003242,-0.020316,0.007372
27.685126,-0.014966,-0.019200,0.005209
27.695166,0.011680,-0.018213,0.004219
27.715217,0.008495,-0.015009,0.006362
27.725226,0.006344,-0.021405,0.005257
27.735267,-0.022414,-0.017060,0.009471
27.745307,0.021263,-0.020370,0.002099
27.755317,-0.004319,-0.025662,0.009481
27.765357,-0.020308,-0.023449,0.004106
27.785407,-0.011769,-0.022439,0.010543
27.795417,-0.003267,-0.026698,0.002001
27.805457,0.007415,-0.021423,0.008465
27.815467,-0.007519,-0.026719,0.009467
27.825507,-0.002205,-0.026691,-0.000132
27.835517,0.006341,-0.026780,0.012709
27.865607,-0.009647,-0.025650,0.010534
27.865607,-0.009647,-0.025650,0.010534
27.875617,-0.008611,-0.030942,-0.000170
27.885657,0.005264,-0.028897,0.009492
27.895667,0.007387,-0.029952,0.005220
27.905707,-0.001150,-0.035279,0.008376
27.925757,0.005270,-0.027839,0.011633
27.935798,0.011624,-0.040655,0.007317
27.945807,-0.001144,-0.034221,0.010517
27.955848,0.013791,-0.030003,0.011647
27.965857,0.010582,-0.033186,0.009486
27.975898,0.007392,-0.034279,0.016950
28.005957,0.005258,-0.034262,0.014807
28.015998,0.021244,-0.030002,0.006326
28.026008,-0.008586,-0.029945,0.014790
28.036065,-0.000055,-0.024603,0.008429
28.046075,0.021253,-0.030032,0.012735
28.076165,-0.003245,-0.026769,0.016956
28.076165,-0.003245,-0.026769,0.016956
28.086205,0.001017,-0.022470,0.008442
28.096215,0.010608,-0.023575,0.009532
28.106255,0.002094,-0.020353,0.011660
28.116265,0.012741,-0.024665,0.012737
28.126305,0.001032,-0.018209,0.010599
28.136315,0.015948,-0.018242,0.007435
28.146355,-0.012834,-0.021363,0.009477
28.156365,0.006355,-0.021440,0.012735
28.166405,0.005302,-0.015014,0.009558
28.176415,-0.002182,-0.022455,0.007365
28.186455,-0.009626,-0.018174,0.010570
28.196465,0.014893,-0.015040,0.008516
28.206505,0.005286,-0.021426,0.010595
28.216515,-0.007510,-0.021365,0.006287
28.226556,0.006336,-0.025686,0.007373
28.236565,-0.010702,-0.020291,0.007352
28.246606,-0.022437,-0.022374,0.004105
28.256646,-0.003266,-0.027781,0.005201
28.286706,-0.017124,-0.026648,0.000895
28.296746,-0.029918,-0.030903,0.006180
28.306756,-0.026720,-0.026607,-0.001268
28.316796,-0.001144,-0.032065,0.006254
28.326806,-0.046966,-0.028707,0.005075
28.346856,-0.013929,-0.030960,0.007293
28.346856,-0.013929,-0.030960,0.007293
28.356896,-0.021386,-0.027717,0.004083
28.366906,-0.000063,-0.028885,0.010545
28.376946,-0.000066,-0.028875,0.008409
28.386956,-0.017100,-0.023495,0.011592
28.396996,0.003132,-0.025656,0.003092
28.417046,-0.032026,-0.022353,0.006215
28.427087,0.003146,-0.024623,0.010574
28.437096,-0.026695,-0.022375,0.007298
28.447137,-0.003255,-0.026738,0.010547
28.457146,-0.027758,-0.023460,0.011563
28.467187,-0.014978,-0.023471,0.005189
28.487237,-0.017115,-0.025600,0.005173
28.487237,-0.017115,-0.025600,0.005173
28.497246,-0.019237,-0.026702,0.013707
28.507287,-0.002179,-0.022465,0.009502
28.517297,-0.010736,-0.033112,0.008359
28.527337,-0.017103,-0.024563,0.011587
28.537347,0.005265,-0.025668,0.004166
28.547387,-0.034158,-0.027731,0.015798
28.557397,0.007403,-0.024617,0.006313
28.567437,-0.014977,-0.026705,0.011583
28.577447,-0.019239,-0.022384,0.004114
28.587487,-0.003252,-0.025670,0.010552
28.597497,-0.007518,-0.025647,0.008404
28.607537,-0.011793,-0.028826,0.006240
28.637627,-0.007509,-0.024599,0.012681
28.647637,0.012724,-0.026765,0.005250
28.657677,-0.007507,-0.026760,0.018012
28.667687,-0.005393,-0.026711,0.006268
28.677727,0.031903,-0.034348,0.014881
28.697777,0.020190,-0.028961,0.012737
28.707787,-0.000052,-0.026764,0.013760
28.717828,0.021253,-0.030032,0.012735
28.727837,-0.006433,-0.021404,0.013768
28.737878,0.018069,-0.026833,0.015946
28.747887,-0.017080,-0.019248,0.016953
28.767937,-0.012809,-0.018209,0.020175
28.777978,0.005291,-0.019286,0.009537
28.788018,0.005284,-0.023572,0.012722
28.798028,-0.018158,-0.021360,0.012667
28.808068,-0.004316,-0.024594,0.009486
28.818078,-0.024544,-0.018136,0.012665
28.838128,-0.017110,-0.027771,0.012640
28.848168,-0.020309,-0.025600,0.007300
28.858178,-0.001112,-0.021396,0.008441
28.868218,-0.008559,-0.018183,0.011641
28.878228,-0.006465,-0.027766,0.004124
28.888268,-0.003244,-0.024618,0.013761
28.908318,0.002075,-0.024605,0.007367
28.918328,-0.020304,-0.025615,0.010505
28.928368,0.011666,-0.023553,0.004194
28.938378,-0.007507,-0.023526,0.011618
28.948418,-0.025650,-0.028776,0.005134
28.958459,0.005264,-0.027819,0.007360
28.978509,-0.006477,-0.030959,0.001972
28.988518,-0.016039,-0.026712,0.013716
28.998559,-0.001132,-0.027793,0.006275
29.008568,-0.019249,-0.028817,0.009424
29.018609,-0.025637,-0.028817,0.013680
29.028619,0.027629,-0.033226,0.006328
29.038654,-0.028833,-0.029889,0.016870
29.048664,-0.002214,-0.033124,0.005178
29.058704,-0.013924,-0.032054,0.012628
29.068714,-0.002207,-0.035300,0.013714
29.078754,-0.001150,-0.035279,0.008376
29.088764,-0.025649,-0.032010,0.011528
29.098804,-0.002211,-0.034212,0.009446
29.118854,-0.024569,-0.025596,0.009425
29.128894,-0.005387,-0.024575,0.006278
29.138904,-0.010703,-0.024599,0.014809
29.148944,-0.012844,-0.023483,0.006263
29.158954,-0.000047,-0.021394,0.007376
29.168994,-0.011771,-0.023512,0.011607
29.189044,-0.000050,-0.024618,0.011634
29.199054,0.007400,-0.024607,0.004177
29.209094,-0.006457,-0.027791,0.009465
29.219104,0.002071,-0.026746,0.008425
29.229145,0.012728,-0.026775,0.007386
29.239154,0.009517,-0.032109,0.008420
29.249195,0.000985,-0.034218,0.008387
29.259204,0.013779,-0.032118,0.007364
29.269245,-0.012851,-0.027770,0.009447
29.279254,0.003112,-0.034209,0.005188
29.289295,-0.013924,-0.030975,0.010497
29.299335,0.010559,-0.038500,0.004120
29.309345,-0.001122,-0.025672,0.009489
29.319385,-0.009678,-0.035246,0.007284
29.329395,-0.005403,-0.029910,0.005185
29.339435,0.004212,-0.025705,0.012709
29.349445,-0.002195,-0.028878,0.010539
29.359485,-0.004323,-0.027803,0.010539
29.369495,0.009544,-0.024654,0.012728
29.379535,-0.001125,-0.026740,0.009484
29.409595,0.006328,-0.028895,0.008427
29.419635,-0.011775,-0.026731,0.014796
29.429645,-0.002210,-0.032061,0.006252
29.439685,-0.018188,-0.030962,0.010485
29.449695,-0.003264,-0.028864,0.008400
29.469776,-0.019257,-0.030948,0.008346
29.479785,-0.004331,-0.027778,0.005198
29.489826,-0.016064,-0.032021,0.007282
29.499835,-0.013934,-0.032023,0.006219
29.509876,-0.018184,-0.026665,0.005165
29.519886,0.004186,-0.028853,0.000943
29.549976,-0.009667,-0.026662,-0.001221
29.549976,-0.009667,-0.026662,-0.001221
29.570026,-0.004337,-0.025606,-0.002270
29.580036,-0.032035,-0.024479,0.004069
29.590076,-0.021365,-0.019164,0.001987
29.610126,-0.021368,-0.022388,0.006244
29.620136,-0.014977,-0.021320,0.001994
29.630176,0.001000,-0.025649,0.003086
29.640216,-0.017107,-0.024547,0.008382
29.650226,0.001010,-0.024601,0.007364
29.660266,0.002065,-0.028881,0.008415
29.670276,-0.011777,-0.024570,0.009465
29.670276,-0.011777,-0.024570,0.009465
29.690326,-0.002187,-0.027825,0.013749
29.700366,-0.007528,-0.028845,0.007320
29.710376,-0.002192,-0.028888,0.012676
29.710376,-0.002192,-0.028888,0.012676
29.730426,-0.003259,-0.027801,0.009473
29.750476,-0.019221,-0.020289,0.012669
29.760517,0.037259,-0.022603,0.011746
29.770526,-0.024576,-0.028805,0.010478
29.780567,-0.010713,-0.024568,0.008400
29.790576,-0.013917,-0.027767,0.009444
29.800617,-0.025637,-0.025588,0.008354
29.820667,0.016986,-0.028930,0.008456
29.820667,0.016986,-0.028930,0.008456
29.830707,-0.025615,-0.017039,0.007326
29.840717,0.009534,-0.022468,0.002056
29.860767,-0.007514,-0.021349,0.003083
29.870807,-0.005368,-0.017095,0.005245
29.890857,-0.004320,-0.022428,0.003087
29.890857,-0.004320,-0.022428,0.003087
29.900867,-0.001116,-0.022458,0.007368
29.910907,-0.001117,-0.020302,0.003106
29.920917,0.010597,-0.024617,0.004186
29.930957,-0.007522,-0.024558,0.004136
29.940967,-0.001128,-0.025652,0.005217
29.961017,-0.008593,-0.027769,0.006254
29.961017,-0.008593,-0.027769,0.006254
29.971057,-0.000081,-0.032058,0.004121
29.981067,-0.020317,-0.026653,0.004091
29.991107,-0.007535,-0.028825,0.003047
30.001148,-0.017128,-0.029867,0.004084
30.011157,-0.026713,-0.027705,0.005136
30.041280,-0.026701,-0.024511,0.007288
30.041280,-0.026701,-0.024511,0.007288
30.051290,-0.002195,-0.026722,0.006277
30.061330,-0.017105,-0.022401,0.006256
30.071340,-0.006444,-0.021368,0.006290
30.081380,-0.000056,-0.025676,0.009492
30.111440,-0.000048,-0.023545,0.010571
30.111440,-0.000048,-0.023545,0.010571
30.121480,-0.000043,-0.021409,0.010581
30.131490,-0.014967,-0.021351,0.008403
30.141530,0.005287,-0.018197,0.005270
30.151540,-0.012822,-0.019247,0.013760
30.181630,-0.002175,-0.019246,0.006312
30.181630,-0.002175,-0.019246,0.006312
30.191670,-0.009641,-0.022436,0.008413
30.201680,-0.021371,-0.023456,0.006239
30.211720,-0.000043,-0.018175,0.004187
30.221730,-0.006453,-0.024572,0.006275
30.241780,-0.010703,-0.018135,0.003089
30.251821,0.006338,-0.023540,0.005247
30.261830,-0.023505,-0.024517,0.006228
30.271871,0.010604,-0.021408,0.003133
30.281880,-0.008585,-0.022409,0.002007
30.291921,-0.002185,-0.021367,0.003098
30.321980,-0.011771,-0.020278,0.005213
30.321980,-0.011771,-0.020278,0.005213
30.332021,-0.001115,-0.020307,0.004174
30.342061,-0.005378,-0.020294,0.004162
30.352071,-0.005381,-0.021361,0.004157
30.362111,-0.004315,-0.021365,0.004160
30.372121,-0.006451,-0.023499,0.005212
30.382161,-0.008579,-0.021351,0.004148
30.392171,-0.008583,-0.022414,0.003075
30.402211,-0.005384,-0.022429,0.004152
30.412221,-0.009653,-0.024551,0.004130
30.422261,-0.009652,-0.023478,0.003067
30.432271,-0.012849,-0.023468,0.003058
30.462361,-0.002193,-0.024576,0.004151
30.462361,-0.002193,-0.024576,0.004151
30.472371,-0.016038,-0.021332,0.005196
30.482411,-0.001135,-0.025632,0.000944
30.492421,-0.019236,-0.022395,0.006250
30.502461,0.002077,-0.023532,0.006304
30.532552,-0.010710,-0.022422,0.006274
30.542562,0.002076,-0.022454,0.004172
30.552602,-0.010711,-0.023495,0.007337
30.562612,0.005277,-0.021396,0.004186
30.572652,-0.011764,-0.019225,0.008422
30.592702,-0.006451,-0.023499,0.005212
30.592702,-0.006451,-0.023499,0.005212
30.602712,-0.008572,-0.020293,0.006290
30.612752,0.008483,-0.017125,0.002079
30.622762,-0.011776,-0.022419,0.006271
30.632802,-0.014972,-0.021335,0.005199
30.642812,0.009546,-0.019274,0.004208
30.672902,-0.000058,-0.022437,0.002030
30.672902,-0.000058,-0.022437,0.002030
30.682942,-0.009646,-0.022421,0.005208
30.692952,-0.012853,-0.022380,-0.001210
30.702992,-0.001127,-0.023501,0.002022
30.713002,-0.012848,-0.023473,0.004126
30.723043,-0.000072,-0.026703,0.000942
30.733052,-0.010718,-0.023475,0.003064
30.743093,-0.003262,-0.023484,-0.000120
30.753102,0.003135,-0.025666,0.005228
30.763143,-0.008599,-0.027749,0.001981
30.773152,-0.009653,-0.023473,0.001999
30.783193,0.006335,-0.023530,0.003111
30.803243,-0.006459,-0.024552,0.002002
30.803243,-0.006459,-0.024552,0.002002
30.813252,-0.006461,-0.024547,0.000934
30.823293,-0.006456,-0.022406,-0.000124
30.833303,-0.016046,-0.021307,-0.000145
30.843343,-0.009651,-0.021327,-0.000128
30.853383,-0.008592,-0.024540,0.000928
30.873433,-0.002183,-0.019221,0.000971
30.873433,-0.002183,-0.019221,0.000971
30.883443,-0.011780,-0.022404,0.003066
30.893483,-0.005383,-0.021356,0.003089
30.903493,-0.010706,-0.018125,0.000953
30.913533,-0.008570,-0.018147,0.004163
30.923543,-0.000042,-0.017102,0.003124
30.943593,-0.005366,-0.017100,0.006314
30.943593,-0.005366,-0.017100,0.006314
30.953633,0.011670,-0.021412,0.003136
30.963643,-0.010707,-0.022432,0.008410
30.973683,-0.001111,-0.018166,0.003116
30.983693,-0.000046,-0.021399,0.008444
30.993733,-0.007508,-0.020292,0.005224
31.023824,-0.005372,-0.018158,0.004172
31.023824,-0.005372,-0.018158,0.004172
31.033834,-0.007502,-0.018156,0.005234
31.043907,0.002090,-0.019265,0.007392
31.053917,-0.005365,-0.016027,0.005250
31.063958,-0.004296,-0.013884,0.003127
31.084007,-0.011766,-0.017064,0.003091
31.094017,0.002087,-0.018177,0.003124
31.104058,-0.004305,-0.017088,0.003112
31.114067,0.003153,-0.016029,-0.000067
31.124107,0.007407,-0.020320,0.000993
31.134118,0.002080,-0.019235,0.000983
31.164207,-0.006451,-0.018114,-0.004376
31.164207,-0.006451,-0.018114,-0.004376
31.174218,-0.003248,-0.015988,-0.004357
31.184257,0.018056,-0.020329,-0.004319
31.194267,-0.003257,-0.023499,0.003084
31.204308,-0.004297,-0.011728,-0.001136
31.224357,-0.022432,-0.018082,-0.000148
31.234398,-0.008581,-0.019190,-0.001183
31.244408,0.005282,-0.018182,0.002065
31.254448,-0.006445,-0.017056,-0.002235
31.264457,-0.007515,-0.020271,0.000952
31.274499,-0.006437,-0.017081,0.003106
31.304557,0.001018,-0.019241,0.003116
31.304557,0.001018,-0.019241,0.003116
31.314599,0.001020,-0.021402,0.008447
31.324607,-0.013908,-0.021334,0.004133
31.334648,0.005275,-0.022469,0.005249
31.344658,-0.006447,-0.022436,0.006285
31.374748,-0.005384,-0.024586,0.008415
31.374748,-0.005384,-0.024586,0.008415
31.384789,-0.001122,-0.023516,0.005227
31.394798,0.003138,-0.025676,0.007365
31.404838,-0.002194,-0.025649,0.005214
31.414849,0.004192,-0.027795,0.003085
31.424889,-0.006458,-0.026708,0.006265
31.434898,-0.001133,-0.026715,0.004143
31.444938,0.003124,-0.027787,0.002014
31.454949,-0.009670,-0.028808,0.000905
31.464988,-0.000076,-0.027766,-0.000132
31.474998,-0.001137,-0.026700,0.000939
31.485039,-0.000072,-0.026703,0.000942
31.515098,-0.006481,-0.032022,0.000899
31.515098,-0.006481,-0.032022,0.000899
31.525139,0.004184,-0.027770,-0.002256
31.535148,0.007384,-0.026712,-0.002242
31.545189,-0.003274,-0.027756,-0.000140
31.555229,0.000985,-0.027754,-0.003333
31.575279,-0.006466,-0.026682,0.000924
31.575279,-0.006466,-0.026682,0.000924
31.585289,0.000994,-0.025629,-0.001187
31.595330,-0.002205,-0.026691,-0.000132
31.605340,-0.001146,-0.028826,-0.001208
31.615379,-0.002199,-0.025633,0.002009
31.625389,0.004196,-0.025654,0.002027
31.655479,-0.001128,-0.024574,0.003085
31.655479,-0.001128,-0.024574,0.003085
31.665490,-0.000063,-0.024578,0.003088
31.675530,0.002080,-0.022464,0.006309
31.685539,-0.004320,-0.023506,0.005218
31.695579,-0.001139,-0.028851,0.004133
31.715629,0.007401,-0.024612,0.005245
31.715629,0.007401,-0.024612,0.005245
31.725669,-0.002185,-0.022445,0.005229
31.735680,0.004198,-0.025659,0.003095
31.745721,-0.009654,-0.025624,0.005193
31.755729,0.005261,-0.026731,0.003093
31.765770,-0.002188,-0.022435,0.003092
31.795829,-0.005402,-0.028837,0.004122
31.795829,-0.005402,-0.028837,0.004122
31.805871,-0.004332,-0.025621,0.000935
31.815880,0.005260,-0.025653,0.000961
31.825920,-0.009657,-0.022385,-0.002269
31.835930,-0.002211,-0.028827,-0.000142
31.855980,0.005263,-0.023507,-0.001165
31.866020,-0.002217,-0.029885,-0.002284
31.876031,-0.001146,-0.028826,-0.001208
31.886071,0.002054,-0.028846,0.000937
31.896110,-0.002211,-0.027749,-0.002274
31.906120,0.004185,-0.026697,-0.003319
31.936210,-0.000078,-0.027761,-0.001200
31.936210,-0.000078,-0.027761,-0.001200
31.946221,0.002049,-0.028831,-0.002267
31.956261,-0.005412,-0.027729,-0.004419
31.966270,-0.004344,-0.027737,-0.003348
31.976310,-0.005417,-0.030942,-0.002298
31.996360,-0.004338,-0.025601,-0.003338
32.006370,-0.000087,-0.029887,-0.003346
32.016411,-0.012873,-0.029855,-0.001245
32.026421,-0.008607,-0.027723,-0.003360
32.036461,-0.005406,-0.025593,-0.004409
32.046465,-0.006467,-0.024526,-0.003339
32.076556,-0.002213,-0.027744,-0.003342
32.076556,-0.002213,-0.027744,-0.003342
32.086596,0.000995,-0.024556,-0.002250
32.096606,-0.000079,-0.027756,-0.002268
32.106646,-0.006473,-0.027740,-0.001217
32.116656,-0.001139,-0.026695,-0.000129
32.126696,-0.002199,-0.024555,-0.000122
32.136706,0.002061,-0.023481,-0.004378
32.146746,-0.003269,-0.026693,0.000933
32.156756,-0.004342,-0.028820,-0.000148
32.166796,0.005251,-0.027778,-0.001185
32.176806,-0.007534,-0.025596,-0.002278
32.186846,-0.002211,-0.026671,-0.004405
32.216906,-0.001142,-0.025607,-0.004397
32.226946,-0.013928,-0.023424,-0.005490
32.236987,-0.010744,-0.027701,-0.006570
32.246996,-0.004355,-0.030936,-0.004431
32.257037,-0.015004,-0.027697,-0.004445
32.277087,-0.012869,-0.025558,-0.006566
32.287096,-0.007546,-0.027712,-0.006561
32.297137,-0.007545,-0.027717,-0.005493
32.307146,-0.007539,-0.024503,-0.007614
32.317187,0.003110,-0.026663,-0.009731
32.327196,-0.000087,-0.028809,-0.005478
32.347247,0.003108,-0.027736,-0.008668
32.357287,-0.001152,-0.025576,-0.010806
32.367297,0.003104,-0.028799,-0.009742
32.377337,-0.010745,-0.027696,-0.007638
32.387347,-0.000095,-0.029861,-0.008687
32.397387,-0.005418,-0.027708,-0.008692
32.417437,-0.008620,-0.029839,-0.007642
32.427477,-0.015012,-0.027672,-0.009786
32.437487,0.000975,-0.026646,-0.011874
32.447527,-0.008613,-0.025552,-0.010827
32.457537,-0.001165,-0.029843,-0.011895
32.467577,-0.002225,-0.029860,-0.007625
32.507677,0.004159,-0.029845,-0.015085
32.507677,0.004159,-0.029845,-0.015085
32.517687,-0.003294,-0.029846,-0.009764
32.527727,-0.006485,-0.024471,-0.015089
32.537737,0.010561,-0.027735,-0.013989
32.547778,-0.011820,-0.028740,-0.011919
32.557787,0.000958,-0.030903,-0.015099
32.567828,-0.003290,-0.026627,-0.012954
32.577868,0.007365,-0.026652,-0.015061
32.587878,-0.000096,-0.026627,-0.015081
32.597918,0.000958,-0.030903,-0.015099
32.607928,-0.002227,-0.026620,-0.015087
32.627978,0.000967,-0.025543,-0.019346
32.638018,-0.007559,-0.026593,-0.017238
32.648028,-0.005428,-0.026600,-0.017232
32.658068,-0.000099,-0.025539,-0.019349
32.668078,0.000973,-0.023407,-0.019336
32.678118,-0.007552,-0.022306,-0.020422
32.688128,-0.003294,-0.024461,-0.019353
32.698168,-0.010758,-0.026578,-0.018315
32.708178,-0.003290,-0.021242,-0.022542
32.718218,-0.006482,-0.020169,-0.021478
32.728228,-0.002241,-0.027653,-0.022569
32.738268,-0.006497,-0.025508,-0.021503
32.748309,0.000971,-0.022324,-0.022535
32.768359,-0.006496,-0.024435,-0.022566
32.778368,0.003089,-0.026597,-0.023618
32.788409,-0.006505,-0.027639,-0.022581
32.798418,0.003095,-0.025539,-0.021477
32.808459,-0.006499,-0.023347,-0.026834
32.818468,0.005217,-0.025516,-0.027880
32.828509,-0.007570,-0.027636,-0.022584
32.838518,0.006277,-0.027655,-0.027887
32.848559,-0.000113,-0.026572,-0.026831
32.858569,-0.006510,-0.025468,-0.030048
32.868609,0.011599,-0.029803,-0.028951
32.878619,-0.002252,-0.029774,-0.025784
32.888659,0.004148,-0.024424,-0.032150
32.908709,0.003079,-0.024411,-0.034290
32.918749,0.006278,-0.026582,-0.028950
32.928759,0.008405,-0.027652,-0.030018
32.938799,0.010539,-0.024435,-0.034269
32.948809,0.003091,-0.022295,-0.030007
32.958849,0.016922,-0.026571,-0.038535
32.968859,-0.003314,-0.025473,-0.031108
32.978899,0.012659,-0.026558,-0.038546
32.988909,-0.001182,-0.022251,-0.036428
32.998949,0.006262,-0.025454,-0.041763
33.008959,0.002007,-0.025465,-0.036434
33.018999,0.002007,-0.024387,-0.038566
33.029009,0.007337,-0.023331,-0.039614
33.049094,0.004127,-0.024359,-0.046037
33.059135,0.000924,-0.028640,-0.041793
33.069144,0.001996,-0.025430,-0.043912
33.079185,0.003057,-0.025418,-0.047113
33.089194,0.011583,-0.025446,-0.047090
33.099235,0.003048,-0.027544,-0.049260
33.109275,0.000922,-0.024323,-0.051387
33.119285,0.000919,-0.025391,-0.051392
