time_tick,gyr_X_value,gyr_Y_value,gyr_Z_value
0.008951,-0.143946,-0.046729,0.043178
0.008951,-0.143946,-0.046729,0.043178
0.018961,-0.042327,0.065960,0.082447
0.039011,0.027529,-0.083535,0.030659
0.049051,-0.028707,0.027880,-0.004220
0.059061,-0.043806,-0.033986,-0.009896
0.069101,-0.000028,-0.002065,-0.014965
0.079111,0.028592,-0.069529,0.004023
0.089151,0.011625,-0.033119,-0.005466
0.099161,-0.021352,-0.007356,-0.010776
0.109201,-0.016063,-0.028792,0.001956
0.119211,-0.003213,-0.019329,0.024469
0.129251,0.008452,-0.048267,0.038251
0.139261,-0.002186,-0.026752,0.012686
0.149301,-0.011795,-0.022358,-0.006548
0.159311,-0.002243,-0.034111,-0.011918
0.169351,0.002045,-0.030972,-0.001209
0.179392,0.007347,-0.043830,0.004086
0.199442,-0.000084,-0.034204,0.006247
0.199442,-0.000084,-0.034204,0.006247
0.209451,-0.000084,-0.042823,0.022230
0.219492,0.003104,-0.054652,0.037138
0.229501,-0.000160,-0.071668,0.024229
0.239542,-0.001272,-0.074746,-0.001425
0.249551,0.006214,-0.064081,-0.003491
0.259592,-0.003333,-0.056650,0.012541
0.269601,-0.006499,-0.051356,0.024308
0.279642,-0.004363,-0.043837,0.013667
0.289652,-0.005425,-0.038458,0.006212
0.299692,-0.003276,-0.030980,0.004117
0.309702,-0.011773,-0.027814,0.017996
0.319742,-0.007517,-0.028881,0.014798
0.329752,-0.006475,-0.030964,0.003040
0.339792,-0.005392,-0.024560,0.003074
0.349802,-0.008578,-0.019200,0.000954
0.359842,-0.008590,-0.026701,0.006259
0.369852,-0.006453,-0.023494,0.004144
0.379892,-0.007518,-0.021339,0.000946
0.389932,-0.001126,-0.022428,0.000959
0.399942,-0.007513,-0.020277,0.002020
0.409982,-0.004333,-0.027773,0.004129
0.419992,-0.007513,-0.020277,0.002020
0.430032,-0.006453,-0.022416,0.002013
0.440058,-0.008580,-0.020268,0.000949
0.450098,-0.004336,-0.027762,0.001993
0.460108,-0.007527,-0.026694,0.004126
0.470148,-0.009649,-0.021332,0.000941
0.480158,-0.003257,-0.023499,0.003084
0.490199,-0.011775,-0.019190,0.000945
0.500208,-0.006466,-0.028839,0.005187
0.510249,-0.004315,-0.021365,0.004160
0.520258,-0.007523,-0.023475,0.000936
0.530299,-0.004317,-0.020282,0.000960
0.540308,-0.006459,-0.024552,0.002002
0.550349,-0.004333,-0.027773,0.004129
0.560358,-0.007510,-0.019209,0.002025
0.570399,-0.006450,-0.021348,0.002018
0.580408,-0.003249,-0.019217,0.000968
0.590449,-0.006462,-0.026698,0.004129
0.600489,-0.005394,-0.026706,0.005200
0.610499,-0.009648,-0.020259,-0.000123
0.620539,-0.003254,-0.021353,0.000958
0.630549,-0.008573,-0.018137,0.002027
0.640589,-0.006469,-0.029907,0.005182
0.650599,-0.007514,-0.021349,0.003083
0.660639,-0.006458,-0.023479,0.000939
0.670649,-0.006446,-0.019207,0.000960
0.680689,-0.007520,-0.023485,0.003073
0.690699,-0.005397,-0.026696,0.003063
0.700739,-0.008579,-0.020273,0.002017
0.710749,-0.008588,-0.023477,0.002002
0.720789,-0.009637,-0.017061,0.000961
0.730799,-0.005393,-0.025633,0.004137
0.740839,-0.004326,-0.025642,0.005208
0.750849,-0.008580,-0.020268,0.000949
0.760889,-0.002190,-0.022430,0.002024
0.770899,-0.006449,-0.020275,0.000954
0.780939,-0.005403,-0.028832,0.003053
0.790949,-0.005383,-0.022434,0.005220
0.800990,-0.008584,-0.020258,-0.001188
0.811030,-0.003251,-0.020285,0.000963
0.821040,-0.008592,-0.024540,0.000928
0.831080,-0.006467,-0.028834,0.004119
0.841090,-0.009639,-0.017056,-0.000107
0.851130,-0.006446,-0.019207,0.000960
0.861140,-0.007507,-0.018141,0.002030
0.871180,-0.007523,-0.024553,0.003068
0.881190,-0.005397,-0.027774,0.005195
0.891230,-0.008569,-0.015996,0.000969
0.901240,-0.002178,-0.018158,0.002045
0.911280,-0.008585,-0.021331,-0.000125
0.921290,-0.002191,-0.023503,0.003087
0.931330,-0.006446,-0.020285,0.003091
0.941340,-0.006446,-0.019207,0.000960
0.951380,-0.006449,-0.020275,0.000954
0.961390,-0.006468,-0.027755,0.001987
0.971430,-0.008598,-0.027754,0.003050
0.981440,-0.005380,-0.018132,-0.001169
0.991480,-0.009643,-0.019197,0.000951
1.001490,-0.008580,-0.020268,0.000949
1.011530,-0.004336,-0.027762,0.001993
1.021571,-0.000071,-0.028859,0.005204
1.031580,-0.009640,-0.018129,0.000956
1.041621,-0.004318,-0.019204,-0.001171
1.051630,-0.000070,-0.026708,0.002010
1.061671,-0.008589,-0.024550,0.003065
1.071680,-0.000065,-0.026723,0.005214
1.081721,-0.007516,-0.022422,0.004146
1.091731,-0.003255,-0.019197,-0.003304
1.101771,-0.007535,-0.028825,0.003047
1.111781,-0.009645,-0.020270,0.002014
1.121821,-0.008576,-0.019205,0.002022
1.131831,-0.005375,-0.020304,0.006298
1.141871,-0.010726,-0.022372,-0.004408
1.151881,-0.003263,-0.026713,0.005206
1.161921,-0.005392,-0.023482,0.000942
1.171931,-0.006438,-0.017076,0.002038
1.181971,-0.005379,-0.019216,0.002031
1.191981,-0.007531,-0.024528,-0.002273
1.202021,-0.005394,-0.025628,0.003068
1.212031,-0.005383,-0.021356,0.003089
1.222071,-0.004310,-0.019229,0.004170
1.232111,-0.008585,-0.021331,-0.000125
1.242121,-0.008601,-0.027743,0.000913
1.252161,-0.007520,-0.023485,0.003073
1.262171,-0.005379,-0.019216,0.002031
1.272211,-0.006452,-0.022421,0.003081
1.282221,-0.004316,-0.019209,-0.000103
1.292262,-0.007535,-0.028825,0.003047
1.302271,-0.002187,-0.021362,0.002029
1.312312,-0.011766,-0.017064,0.003091
1.322321,-0.003260,-0.024567,0.003079
1.332362,-0.007521,-0.021329,-0.001190
1.342371,-0.006466,-0.026682,0.000924
1.352412,-0.005374,-0.018153,0.003104
1.362421,-0.009642,-0.019202,0.002019
1.372462,-0.003258,-0.024572,0.004148
1.382471,-0.007535,-0.027747,0.000916
1.392512,-0.002194,-0.024571,0.003082
1.402522,-0.010703,-0.018135,0.003089
1.412562,-0.003256,-0.022426,0.002021
1.422572,-0.004320,-0.021350,0.000955
1.432608,-0.006477,-0.030959,0.001972
1.442648,-0.003250,-0.020290,0.002031
1.452658,-0.010704,-0.019208,0.004152
1.462698,-0.002193,-0.024576,0.004151
1.472708,-0.010719,-0.022392,-0.000136
1.482748,-0.005392,-0.024560,0.003074
1.492758,-0.006446,-0.020285,0.003091
1.502798,-0.009634,-0.017071,0.003097
1.512808,-0.003258,-0.024572,0.004148
1.522848,-0.009655,-0.024546,0.003062
1.532858,-0.003257,-0.023499,0.003084
1.542898,-0.008566,-0.016006,0.003105
1.552908,-0.005384,-0.022429,0.004152
1.572958,-0.006463,-0.027771,0.005192
1.572958,-0.006463,-0.027771,0.005192
1.582998,-0.003248,-0.020295,0.003100
1.593008,-0.008573,-0.019215,0.004158
1.603049,-0.005387,-0.023497,0.004147
1.613058,-0.010722,-0.023460,-0.000141
1.623099,-0.008590,-0.025623,0.004128
1.633108,-0.006443,-0.019217,0.003096
1.643149,-0.005384,-0.022429,0.004152
1.653189,-0.004317,-0.021360,0.003092
1.663199,-0.008593,-0.025613,0.001992
1.673239,-0.003265,-0.025630,0.002006
1.683249,-0.008570,-0.017069,0.002032
1.693289,-0.005390,-0.024565,0.004142
1.703299,-0.004317,-0.020282,0.000960
1.713339,-0.003272,-0.028839,0.003059
1.723349,-0.003251,-0.020285,0.000963
1.733389,-0.007509,-0.019214,0.003093
1.743399,-0.003254,-0.022431,0.003090
1.753439,-0.008591,-0.024545,0.001997
1.763449,-0.003264,-0.026708,0.004137
1.773489,-0.006443,-0.018139,0.000965
1.783499,-0.002191,-0.023503,0.003087
1.793539,-0.004326,-0.023486,0.000945
1.803549,-0.008598,-0.026676,0.000918
1.813589,-0.003256,-0.022426,0.002021
1.823599,-0.009633,-0.015998,0.002034
1.833639,-0.003257,-0.023499,0.003084
1.843649,-0.005386,-0.022424,0.003084
1.853689,-0.005399,-0.027769,0.004127
1.863730,-0.006447,-0.020280,0.002023
1.873739,-0.007507,-0.018141,0.002030
1.883780,-0.003263,-0.025635,0.003074
1.893789,-0.005398,-0.025618,0.000932
1.903830,-0.005392,-0.024560,0.003074
1.913840,-0.005379,-0.019216,0.002031
1.923880,-0.004320,-0.022428,0.003087
1.933890,-0.004317,-0.021360,0.003092
1.943930,-0.011789,-0.025607,0.003051
1.953940,-0.003255,-0.023504,0.004153
1.963980,-0.009636,-0.017066,0.002029
1.973990,-0.006453,-0.023494,0.004144
1.984030,-0.007525,-0.023470,-0.000132
1.994040,-0.006466,-0.027761,0.003055
2.004080,-0.004310,-0.018151,0.002039
2.014090,-0.008579,-0.020273,0.002017
2.024130,-0.005381,-0.021361,0.004157
2.034140,-0.007521,-0.022407,0.000941
2.044180,-0.004333,-0.026694,0.001998
2.054190,-0.007501,-0.016005,0.002040
2.064230,-0.005380,-0.020288,0.003094
2.074270,-0.006456,-0.023484,0.002007
2.084280,-0.005399,-0.026691,0.001995
2.094320,-0.005390,-0.023487,0.002010
2.104330,-0.006438,-0.017076,0.002038
2.114371,-0.006449,-0.021353,0.003086
2.124380,-0.004326,-0.023486,0.000945
2.134421,-0.004337,-0.028835,0.003056
2.144430,-0.007506,-0.017068,0.000967
2.144430,-0.007506,-0.017068,0.000967
2.164480,-0.002194,-0.024571,0.003082
2.174521,-0.005404,-0.027754,0.000922
2.184530,-0.001125,-0.023506,0.003090
2.194571,-0.009642,-0.019202,0.002019
2.204581,-0.003248,-0.020295,0.003100
2.214621,-0.007521,-0.022407,0.000941
2.224631,-0.004332,-0.026700,0.003066
2.234671,-0.006446,-0.020285,0.003091
2.244681,-0.009637,-0.018139,0.003092
2.254721,-0.003251,-0.021363,0.003095
2.264731,-0.007525,-0.024548,0.002000
2.274771,-0.007525,-0.024548,0.002000
2.284811,-0.007501,-0.016005,0.002040
2.294821,-0.005379,-0.019216,0.002031
2.304861,-0.005393,-0.024555,0.002005
2.314871,-0.009658,-0.025614,0.003057
2.324911,-0.005381,-0.020283,0.002026
2.334921,-0.008566,-0.014928,0.000974
2.344961,-0.002190,-0.023508,0.004156
2.354971,-0.007525,-0.024548,0.002000
2.365011,-0.004327,-0.024559,0.002008
2.375021,-0.012829,-0.014915,0.000962
2.385061,-0.004304,-0.016015,0.002049
2.395071,-0.004324,-0.023491,0.002013
2.405112,-0.007526,-0.025621,0.003063
2.405112,-0.007526,-0.025621,0.003063
2.425162,-0.012816,-0.009570,-0.000081
2.435208,-0.003251,-0.020285,0.000963
2.435208,-0.003251,-0.020285,0.000963
2.455258,-0.010724,-0.024533,0.000923
2.455258,-0.010724,-0.024533,0.000923
2.475308,-0.007502,-0.013849,-0.002223
2.485349,-0.002209,-0.029910,0.003057
2.495389,-0.012851,-0.023463,0.001990
2.505399,0.001035,-0.011756,0.001015
2.505399,0.001035,-0.011756,0.001015
2.525449,-0.000074,-0.031005,0.007331
2.525449,-0.000074,-0.031005,0.007331
2.535489,-0.012847,-0.021322,0.000932
2.555539,-0.010673,-0.004227,-0.002186
2.565549,-0.003267,-0.027776,0.004132
2.565549,-0.003267,-0.027776,0.004132
2.575589,-0.006450,-0.022426,0.004149
2.595639,-0.005365,-0.013871,0.000988
2.605649,-0.013924,-0.026668,0.003040
2.605649,-0.013924,-0.026668,0.003040
2.615689,0.004230,-0.013912,0.003151
2.625699,-0.009619,-0.008502,-0.002203
2.635739,-0.007519,-0.022412,0.002010
2.645749,0.004208,-0.021383,0.002047
2.655789,-0.011727,-0.001030,-0.000037
2.665799,-0.006434,-0.014935,0.000980
2.675839,-0.002187,-0.021362,0.002029
2.685849,-0.006401,-0.002115,-0.000028
2.705930,-0.002184,-0.019216,-0.000097
2.715940,-0.005333,-0.002124,0.001043
2.725980,-0.012825,-0.011696,-0.002227
2.735990,-0.000040,-0.013878,-0.001134
2.756040,-0.009621,-0.010648,-0.000077
2.756040,-0.009621,-0.010648,-0.000077
2.766080,-0.002154,-0.007464,-0.001109
2.776090,-0.007477,-0.006388,0.001017
2.796140,-0.003210,-0.005334,0.001034
2.806180,-0.014936,-0.004213,-0.002198
2.806180,-0.014936,-0.004213,-0.002198
2.816190,-0.001095,-0.009598,-0.002185
2.826230,-0.005351,-0.008531,0.001013
2.836240,-0.008550,-0.007438,-0.002195
2.856290,-0.013876,-0.006352,-0.002205
2.866330,-0.002165,-0.011735,-0.001130
2.866330,-0.002165,-0.011735,-0.001130
2.876340,-0.006421,-0.008513,-0.002194
2.886380,-0.010679,-0.005285,-0.004327
2.896390,-0.003219,-0.008538,0.001019
2.906430,-0.011742,-0.005291,-0.002194
2.916471,-0.007483,-0.006368,-0.003255
2.926480,-0.008547,-0.006370,-0.002190
2.946530,-0.004298,-0.012801,-0.000072
2.946530,-0.004298,-0.012801,-0.000072
2.956571,-0.008553,-0.009584,-0.000069
2.966580,-0.008554,-0.009579,-0.001137
2.976621,-0.011744,-0.007437,-0.000068
2.986630,-0.008560,-0.011714,-0.001147
2.996671,-0.011746,-0.007432,-0.001136
3.026731,-0.008551,-0.008511,-0.001132
3.026731,-0.008551,-0.008511,-0.001132
3.036771,-0.007503,-0.016000,0.000972
3.046781,-0.010695,-0.012775,-0.001158
3.056821,-0.011761,-0.012772,-0.001161
3.066831,-0.010700,-0.015989,0.000963
3.086881,-0.006443,-0.018139,0.000965
3.086881,-0.006443,-0.018139,0.000965
3.096921,-0.010701,-0.014911,-0.001168
3.106931,-0.005376,-0.018148,0.002036
3.116971,-0.010701,-0.014911,-0.001168
3.127011,-0.007509,-0.018136,0.000962
3.137021,-0.006447,-0.020280,0.002023
3.157071,-0.006450,-0.020270,-0.000114
3.167111,-0.012842,-0.019181,-0.000126
3.177121,-0.002194,-0.023493,0.000951
3.187161,-0.009635,-0.014915,-0.001165
3.197171,-0.004314,-0.019214,0.000965
3.207212,-0.008579,-0.019195,-0.000115
3.227262,-0.006449,-0.020275,0.000954
3.227262,-0.006449,-0.020275,0.000954
3.237271,-0.007513,-0.019198,-0.000112
3.247312,-0.002194,-0.023493,0.000951
3.257321,-0.012845,-0.019171,-0.002263
3.267362,0.004209,-0.020310,0.000984
3.277371,-0.013905,-0.017032,-0.002255
3.297421,-0.009652,-0.021322,-0.001196
3.307462,-0.007518,-0.019183,-0.003316
3.317472,-0.007525,-0.022392,-0.002263
3.327512,-0.012849,-0.019161,-0.004399
3.337552,-0.001138,-0.024544,-0.003324
3.347562,-0.007521,-0.019173,-0.005453
3.357602,-0.008588,-0.020243,-0.004392
3.367612,-0.008593,-0.021306,-0.005466
3.377652,-0.005402,-0.022374,-0.007598
3.387662,-0.005404,-0.025598,-0.003341
3.397702,-0.009656,-0.019156,-0.007595
3.407712,-0.005400,-0.023457,-0.004399
3.417752,-0.013913,-0.017006,-0.007596
3.437819,-0.011793,-0.022363,-0.005479
3.437819,-0.011793,-0.022363,-0.005479
3.447829,-0.008605,-0.024499,-0.007617
3.457869,-0.006471,-0.025589,-0.004412
3.467879,-0.012838,-0.012733,-0.008641
3.477919,-0.010720,-0.019158,-0.006530
3.487929,-0.011792,-0.021290,-0.006543
3.507979,-0.009666,-0.023433,-0.006547
3.518020,-0.009649,-0.015947,-0.008648
3.528029,-0.006462,-0.020234,-0.007591
3.538070,-0.012859,-0.021282,-0.007614
3.548079,-0.005409,-0.025583,-0.006545
3.558120,-0.011794,-0.021285,-0.007611
3.578170,-0.006469,-0.022365,-0.008669
3.588210,-0.010738,-0.024487,-0.008691
3.598220,-0.003282,-0.025574,-0.009744
3.608260,-0.011798,-0.021270,-0.010815
3.618270,-0.004347,-0.022342,-0.015073
3.628310,-0.007535,-0.021284,-0.010804
3.638320,-0.010742,-0.023399,-0.012959
3.648360,-0.003291,-0.026622,-0.014022
3.658370,-0.012861,-0.019120,-0.012945
3.668410,-0.006486,-0.020159,-0.023614
3.678420,-0.003287,-0.025559,-0.012949
3.688460,-0.007558,-0.024442,-0.020433
3.698470,-0.003284,-0.022335,-0.017206
3.718520,-0.000116,-0.026562,-0.028968
3.718520,-0.000116,-0.026562,-0.028968
3.728560,-0.007553,-0.025535,-0.015097
3.738570,-0.010776,-0.027600,-0.027934
3.748610,0.003106,-0.023419,-0.018262
3.758620,-0.010744,-0.019082,-0.022552
3.768660,0.000953,-0.022268,-0.034286
3.788710,-0.002241,-0.023346,-0.030027
3.788710,-0.002241,-0.023346,-0.030027
3.798751,0.005229,-0.023400,-0.023597
3.808760,-0.007554,-0.021223,-0.023622
3.818801,0.003086,-0.021202,-0.035343
3.828811,-0.002232,-0.025527,-0.020423
3.838851,-0.001182,-0.025480,-0.031102
3.858901,-0.011816,-0.019058,-0.026828
3.868911,0.004125,-0.027583,-0.041779
3.878951,0.002035,-0.024478,-0.019338
3.888961,-0.008651,-0.026509,-0.034332
3.899001,0.000959,-0.021210,-0.032144
3.909011,-0.012886,-0.022274,-0.023642
3.929061,-0.002238,-0.026585,-0.022564
3.939101,-0.006521,-0.025432,-0.037526
3.949111,-0.001184,-0.021168,-0.039627
3.959151,-0.013946,-0.020134,-0.023634
3.969161,0.003040,-0.028596,-0.052469
3.979201,0.000958,-0.022283,-0.031081
3.999251,-0.004401,-0.023248,-0.049260
4.009291,-0.007566,-0.019031,-0.035362
4.019301,-0.001199,-0.023273,-0.046047
4.029342,-0.002250,-0.020086,-0.041762
4.039351,-0.007565,-0.016880,-0.038556
4.049392,-0.004391,-0.018971,-0.050308
4.079451,-0.010763,-0.012558,-0.047091
4.079451,-0.010763,-0.012558,-0.047091
4.089492,-0.007574,-0.012543,-0.052423
4.099501,-0.011849,-0.017879,-0.050323
4.109542,-0.008645,-0.015753,-0.050304
4.119551,-0.010782,-0.014653,-0.055646
4.129592,-0.017159,-0.008225,-0.055633
4.139602,-0.006523,-0.015730,-0.056708
4.149642,-0.007585,-0.013586,-0.057769
4.159652,-0.011852,-0.015713,-0.056722
4.169692,-0.005446,-0.011462,-0.056685
4.179702,-0.016118,-0.012460,-0.064196
4.189742,-0.001197,-0.013586,-0.062024
4.199782,-0.010799,-0.016754,-0.063134
4.209792,0.003048,-0.021081,-0.060979
4.219832,-0.011858,-0.013541,-0.064190
4.229842,-0.005471,-0.014615,-0.067382
4.239882,-0.009725,-0.012475,-0.065247
4.249892,-0.014022,-0.023126,-0.068514
4.259932,0.006248,-0.018945,-0.063097
4.279982,0.021201,-0.008324,-0.060869
4.289992,-0.010807,-0.015650,-0.070606
4.300032,0.001990,-0.013561,-0.069493
4.310042,-0.014036,-0.025236,-0.073865
4.320083,0.000888,-0.025295,-0.071688
4.330092,-0.014035,-0.024163,-0.074928
4.340133,0.001960,-0.023162,-0.071674
4.350142,-0.015123,-0.029474,-0.080297
4.360183,-0.002299,-0.019929,-0.074876
4.370192,-0.006566,-0.017749,-0.081286
4.380233,-0.003390,-0.026308,-0.080250
4.390242,-0.002360,-0.038049,-0.082439
4.400283,0.014713,-0.031707,-0.080225
4.420333,0.008343,-0.019914,-0.085528
4.430373,-0.014070,-0.030515,-0.086709
4.440373,0.010447,-0.030605,-0.084505
4.450413,0.006168,-0.030540,-0.095198
4.460423,0.007261,-0.025245,-0.086625
4.470463,-0.002340,-0.027339,-0.088798
4.490513,0.000839,-0.031601,-0.093082
4.500523,0.008312,-0.025203,-0.096235
4.510563,-0.003409,-0.021940,-0.100525
4.520573,0.010445,-0.023058,-0.099424
4.530613,-0.001317,-0.036903,-0.099522
4.540623,0.007224,-0.029435,-0.103736
4.560673,-0.002363,-0.026190,-0.105884
4.570713,-0.002396,-0.036859,-0.108071
4.580723,0.003998,-0.037953,-0.106990
4.590763,-0.008800,-0.037886,-0.112366
4.600773,-0.001327,-0.035795,-0.108063
4.610813,0.001845,-0.040032,-0.117688
4.630864,0.007166,-0.043258,-0.116620
4.640904,0.017826,-0.042219,-0.117654
4.650914,0.001821,-0.047497,-0.119860
4.660954,0.013547,-0.045389,-0.121954
4.670964,0.002870,-0.050679,-0.125213
4.681004,0.014609,-0.046455,-0.123024
4.701054,0.016717,-0.055006,-0.123059
4.711064,0.007112,-0.050627,-0.139088
4.721104,0.016741,-0.042155,-0.130475
4.731114,-0.001426,-0.054871,-0.139131
4.741154,0.013513,-0.050668,-0.134797
4.751164,0.006036,-0.053822,-0.140174
4.781254,0.007106,-0.052763,-0.139098
4.781254,0.007106,-0.052763,-0.139098
4.791264,0.008156,-0.052716,-0.149777
4.801304,0.009243,-0.048478,-0.143344
4.811314,0.002843,-0.051671,-0.141241
4.821354,0.004952,-0.051607,-0.156190
4.841404,0.003891,-0.051619,-0.152988
4.841404,0.003891,-0.051619,-0.152988
4.851445,0.010289,-0.050572,-0.152965
4.861454,0.009226,-0.048422,-0.155095
4.871495,0.011349,-0.051633,-0.155104
4.881504,0.004953,-0.050534,-0.157253
4.891545,0.019858,-0.054839,-0.160437
4.911595,0.013470,-0.050531,-0.163638
4.911595,0.013470,-0.050531,-0.163638
4.921604,0.016659,-0.053746,-0.163645
4.931645,0.011342,-0.049456,-0.163639
4.941655,0.028369,-0.054816,-0.171095
4.951695,0.016665,-0.052688,-0.161503
4.961705,0.023034,-0.053706,-0.176446
4.991795,0.020908,-0.050485,-0.178573
4.991795,0.020908,-0.050485,-0.178573
5.001805,0.016634,-0.057977,-0.172211
5.011845,0.023028,-0.051529,-0.184981
5.021855,0.024081,-0.065497,-0.167953
5.031895,0.026224,-0.053691,-0.181778
5.041905,0.028349,-0.054755,-0.183913
5.051945,0.027273,-0.062258,-0.177543
5.061985,0.031548,-0.053693,-0.184968
5.071995,0.027279,-0.055815,-0.184990
5.082035,0.025119,-0.063258,-0.190372
5.092045,0.027271,-0.054711,-0.192462
5.102085,0.018734,-0.058961,-0.191437
5.122135,0.016603,-0.055725,-0.196769
5.132145,0.024044,-0.059995,-0.202110
5.142186,0.018706,-0.061026,-0.206402
5.152195,0.022986,-0.058939,-0.198903
5.162236,0.011247,-0.054543,-0.217074
5.172245,0.025089,-0.064240,-0.208536
5.192295,0.018708,-0.057802,-0.210660
5.202336,0.019752,-0.063119,-0.216023
5.212345,0.023998,-0.066312,-0.221368
5.222386,0.026150,-0.065306,-0.209606
5.232396,0.032503,-0.071659,-0.225642
5.242436,0.035715,-0.071715,-0.216020
5.262486,0.042116,-0.065292,-0.223449
5.272526,0.032519,-0.068475,-0.221354
5.282536,0.046367,-0.066344,-0.229852
5.292576,0.045298,-0.073872,-0.218140
5.302586,0.038898,-0.070601,-0.227756
5.312626,0.033595,-0.059895,-0.229856
5.332676,0.036769,-0.064141,-0.237345
5.342686,0.035682,-0.074843,-0.232058
5.352726,0.031420,-0.072678,-0.235264
5.362736,0.030357,-0.068372,-0.241656
5.372776,0.033556,-0.070544,-0.236316
5.382786,0.039933,-0.073738,-0.242723
5.402836,0.046328,-0.076993,-0.236311
5.412876,0.047406,-0.068417,-0.243745
5.422886,0.041033,-0.064155,-0.237333
5.432927,0.052728,-0.072722,-0.240546
5.442956,0.051690,-0.063112,-0.239435
5.452997,0.053806,-0.069531,-0.238392
5.463006,0.064462,-0.069561,-0.239431
5.473047,0.050611,-0.065219,-0.244790
5.483087,0.061280,-0.066367,-0.235152
5.493097,0.041024,-0.060896,-0.249068
5.503137,0.045283,-0.065207,-0.243736
5.513147,0.047417,-0.061990,-0.247988
5.523187,0.030350,-0.066196,-0.250191
5.533197,0.043143,-0.064096,-0.251214
5.543237,0.027193,-0.050156,-0.252260
5.553247,0.015429,-0.055377,-0.269409
5.563287,0.031415,-0.062965,-0.256582
5.573297,0.025033,-0.051136,-0.269362
5.583337,0.020774,-0.050060,-0.268301
5.593347,0.032468,-0.062928,-0.265125
5.613397,0.030354,-0.052206,-0.272557
5.623437,0.031399,-0.057529,-0.276853
5.633447,0.039931,-0.054343,-0.278950
5.643487,0.033543,-0.054343,-0.274695
5.653497,0.043098,-0.059643,-0.289649
5.663537,0.042051,-0.058622,-0.278965
5.683587,0.046292,-0.061799,-0.287514
5.693628,0.044175,-0.059681,-0.282169
5.703637,0.039882,-0.063884,-0.293951
5.713678,0.044153,-0.061767,-0.292861
5.723687,0.045199,-0.071402,-0.288630
5.733728,0.050484,-0.070204,-0.319588
5.743738,0.052545,-0.075374,-0.356995
5.753778,0.034385,-0.081647,-0.373098
5.763788,0.053509,-0.094443,-0.390197
5.773828,0.050392,-0.091457,-0.342122
5.783838,0.052574,-0.083006,-0.323916
5.793878,0.051543,-0.073417,-0.318532
5.803888,0.050555,-0.058579,-0.293896
5.823938,0.056880,-0.082079,-0.297194
5.833978,0.049451,-0.064917,-0.307816
5.843988,0.049460,-0.064947,-0.301407
5.854028,0.034524,-0.068082,-0.305736
5.864038,0.055791,-0.078770,-0.318546
5.874078,0.048344,-0.085250,-0.298301
5.894128,0.054745,-0.073442,-0.315319
5.904138,0.061162,-0.067071,-0.312067
5.914178,0.071802,-0.070279,-0.318462
5.924218,0.070739,-0.070285,-0.316328
5.934228,0.080354,-0.059617,-0.320524
5.944269,0.086714,-0.074609,-0.316304
5.964319,0.086703,-0.073496,-0.325913
5.974328,0.080305,-0.074543,-0.325936
5.984369,0.066454,-0.070201,-0.331295
5.994378,0.073872,-0.088405,-0.326019
6.004419,0.064269,-0.089416,-0.331392
6.014428,0.055757,-0.080815,-0.337784
6.034478,0.051506,-0.072222,-0.345232
6.044519,0.056804,-0.089377,-0.334617
6.054529,0.066369,-0.095785,-0.341030
6.064569,0.064258,-0.088303,-0.341000
6.074579,0.069636,-0.068009,-0.345162
6.084619,0.071706,-0.089365,-0.347394
6.104669,0.090886,-0.093724,-0.342020
6.114679,0.075987,-0.086205,-0.340958
6.124719,0.076004,-0.075485,-0.349453
6.124719,0.076004,-0.075485,-0.349453
6.144769,0.069554,-0.098989,-0.343173
6.154809,0.087696,-0.088349,-0.347345
6.154809,0.087696,-0.088349,-0.347345
6.174859,0.061065,-0.081845,-0.349524
6.184869,0.072766,-0.090426,-0.349532
6.194909,0.057840,-0.092518,-0.348515
6.204919,0.064254,-0.085059,-0.349531
6.204919,0.064254,-0.085059,-0.349531
6.224969,0.053612,-0.077533,-0.352729
6.235009,0.058930,-0.078593,-0.358060
6.235009,0.058930,-0.078593,-0.358060
6.255060,0.059989,-0.083962,-0.352742
6.265069,0.065324,-0.081843,-0.352717
6.275110,0.060001,-0.081846,-0.348459
6.285119,0.055731,-0.081812,-0.352743
6.295160,0.064259,-0.078611,-0.358046
6.305169,0.061075,-0.071105,-0.362292
6.305169,0.061075,-0.071105,-0.362292
6.315210,0.054663,-0.077491,-0.362340
6.325219,0.065305,-0.083939,-0.361273
6.335260,0.062108,-0.085006,-0.359150
6.355310,0.062148,-0.065743,-0.367605
6.355310,0.062148,-0.065743,-0.367605
6.375360,0.066340,-0.089231,-0.371977
6.385400,0.069543,-0.087106,-0.371958
6.385400,0.069543,-0.087106,-0.371958
6.395410,0.058911,-0.074225,-0.378336
6.405450,0.063177,-0.074249,-0.376188
6.415460,0.053539,-0.088076,-0.381621
6.425500,0.068451,-0.091328,-0.381595
6.435510,0.061012,-0.085985,-0.377317
6.455576,0.064214,-0.079547,-0.385824
6.465616,0.051416,-0.081631,-0.388006
6.475626,0.058840,-0.092314,-0.392308
6.485666,0.060964,-0.097681,-0.388055
6.495676,0.057792,-0.085903,-0.392281
6.505716,0.058862,-0.083766,-0.393336
6.515726,0.057781,-0.091253,-0.390170
6.525766,0.059893,-0.097663,-0.391263
6.555857,0.072716,-0.084884,-0.392235
6.555857,0.072716,-0.084884,-0.392235
6.565867,0.068432,-0.094497,-0.389088
6.575907,0.080147,-0.098817,-0.386939
6.585917,0.073799,-0.082787,-0.384744
6.595957,0.080203,-0.074219,-0.394300
6.616007,0.085484,-0.094552,-0.389041
6.616007,0.085484,-0.094552,-0.389041
6.626017,0.092982,-0.081766,-0.387891
6.636057,0.072751,-0.076376,-0.384717
6.646067,0.072710,-0.087020,-0.392245
6.656107,0.082296,-0.094572,-0.382640
6.666117,0.068462,-0.080588,-0.394363
6.686167,0.065245,-0.085902,-0.397601
6.686167,0.065245,-0.085902,-0.397601
6.696207,0.069452,-0.106207,-0.397686
6.706217,0.063046,-0.110458,-0.397724
6.716257,0.065207,-0.096556,-0.402993
6.726267,0.056688,-0.091164,-0.408332
6.736307,0.054513,-0.103947,-0.413740
6.756357,0.059855,-0.106161,-0.400917
6.756357,0.059855,-0.106161,-0.400917
6.766367,0.058773,-0.105028,-0.413733
6.776407,0.059864,-0.097572,-0.410490
6.786448,0.059855,-0.097541,-0.416899
6.796457,0.065158,-0.109326,-0.412667
6.806498,0.065158,-0.110404,-0.410536
6.826548,0.062022,-0.084733,-0.416833
6.826548,0.062022,-0.084733,-0.416833
6.836557,0.062017,-0.084718,-0.420037
6.846598,0.065183,-0.099710,-0.413690
6.856608,0.066274,-0.093331,-0.408316
6.866648,0.068420,-0.087998,-0.408285
6.876658,0.063104,-0.079402,-0.415736
6.906748,0.072705,-0.077307,-0.413563
6.906748,0.072705,-0.077307,-0.413563
6.916758,0.072704,-0.080536,-0.408238
6.926798,0.068453,-0.076251,-0.408229
6.936808,0.067404,-0.067684,-0.412464
6.946848,0.062068,-0.067646,-0.416752
6.966898,0.067386,-0.073013,-0.414626
6.966898,0.067386,-0.073013,-0.414626
6.976908,0.080202,-0.062365,-0.416677
6.986948,0.071662,-0.066604,-0.417788
6.996988,0.086568,-0.071992,-0.417773
7.006998,0.087632,-0.069835,-0.423101
7.017038,0.089752,-0.075191,-0.420984
7.037088,0.090807,-0.076238,-0.426327
7.037088,0.090807,-0.076238,-0.426327
7.047098,0.088664,-0.082658,-0.422090
7.057139,0.089723,-0.081564,-0.428491
7.067148,0.079074,-0.075091,-0.434900
7.077189,0.097165,-0.087990,-0.429569
7.087198,0.070505,-0.091087,-0.433931
7.107248,0.059880,-0.078232,-0.434967
7.107248,0.059880,-0.078232,-0.434967
7.117289,0.076912,-0.083607,-0.439219
7.127298,0.084355,-0.094346,-0.431771
7.137339,0.074770,-0.087877,-0.438177
7.147348,0.092912,-0.082622,-0.432760
7.157389,0.079078,-0.071872,-0.438089
7.197489,0.088668,-0.078361,-0.427411
7.197489,0.088668,-0.078361,-0.427411
7.207529,0.080147,-0.072964,-0.433818
7.217539,0.081172,-0.087918,-0.433886
7.227579,0.085385,-0.107165,-0.431829
7.237589,0.073740,-0.077215,-0.433856
7.247629,0.063117,-0.064365,-0.433825
7.257639,0.050307,-0.070721,-0.436027
7.267679,0.077983,-0.085782,-0.431748
7.277689,0.076908,-0.091133,-0.428572
7.287729,0.097182,-0.079427,-0.433802
7.297739,0.078033,-0.068705,-0.429531
7.317789,0.093984,-0.082645,-0.428485
7.317789,0.093984,-0.082645,-0.428485
7.327829,0.088670,-0.074059,-0.433800
7.337839,0.098226,-0.086901,-0.434902
7.347880,0.090794,-0.080504,-0.427415
7.357889,0.096124,-0.077292,-0.432726
7.367930,0.092901,-0.086898,-0.431713
7.377939,0.090764,-0.089027,-0.431729
7.387980,0.089701,-0.086878,-0.433858
7.397989,0.083303,-0.086847,-0.436012
7.408030,0.082235,-0.085760,-0.439214
7.418070,0.082225,-0.091115,-0.436035
7.428080,0.072632,-0.087850,-0.442455
7.438161,0.080093,-0.087874,-0.442435
7.458211,0.073681,-0.094261,-0.442483
7.468221,0.064084,-0.095293,-0.443582
7.478261,0.065166,-0.088884,-0.444617
7.488271,0.041730,-0.083458,-0.446793
7.498311,0.052382,-0.081321,-0.454231
7.508321,0.040654,-0.084502,-0.451073
7.528371,0.042790,-0.082368,-0.452126
7.538411,0.039609,-0.075945,-0.453172
7.548421,0.040663,-0.080220,-0.453190
7.558461,0.041718,-0.082344,-0.456401
7.568471,0.053447,-0.083475,-0.451033
7.578511,0.043835,-0.091998,-0.448964
7.598561,0.042810,-0.078121,-0.446764
7.598561,0.042810,-0.078121,-0.446764
7.608571,0.055565,-0.087749,-0.452116
7.618611,0.050217,-0.099519,-0.443641
7.628621,0.058771,-0.091019,-0.440372
7.638661,0.054512,-0.087786,-0.443573
7.648702,0.054520,-0.085655,-0.442495
7.668752,0.056623,-0.100654,-0.434014
7.668752,0.056623,-0.100654,-0.434014
7.678762,0.071539,-0.099609,-0.439309
7.688802,0.065165,-0.093191,-0.437160
7.698812,0.059865,-0.082494,-0.437124
7.708852,0.063035,-0.092111,-0.438229
7.718862,0.053434,-0.095283,-0.438271
7.738912,0.058783,-0.087825,-0.438220
7.738912,0.058783,-0.087825,-0.438220
7.748952,0.059857,-0.086776,-0.435008
7.758962,0.057706,-0.094250,-0.433981
7.769002,0.069421,-0.096413,-0.436095
7.779012,0.059842,-0.092116,-0.435033
7.789052,0.061983,-0.089997,-0.432881
7.809102,0.075818,-0.098595,-0.430747
7.819112,0.073704,-0.093259,-0.428591
7.829152,0.082230,-0.092208,-0.430699
7.839162,0.091816,-0.096527,-0.427488
7.849202,0.071548,-0.102868,-0.427574
7.859243,0.107769,-0.109399,-0.426437
7.879293,0.096086,-0.091175,-0.432792
7.889302,0.093959,-0.097647,-0.417874
7.899343,0.089671,-0.102942,-0.424320
7.909352,0.098194,-0.102960,-0.426433
7.919393,0.088602,-0.108314,-0.416871
7.929402,0.095024,-0.094416,-0.424265
7.949452,0.079025,-0.097558,-0.426460
7.949452,0.079025,-0.097558,-0.426460
7.959493,0.084337,-0.107217,-0.420082
7.969503,0.068375,-0.096471,-0.423280
7.979543,0.074788,-0.089011,-0.424295
7.989553,0.062004,-0.090063,-0.418994
7.999593,0.073714,-0.092211,-0.424313
8.019643,0.071596,-0.090094,-0.418968
8.019643,0.071596,-0.090094,-0.418968
8.029653,0.064138,-0.087923,-0.421115
8.039693,0.071604,-0.089041,-0.415758
8.049703,0.074782,-0.096532,-0.414717
8.059743,0.072671,-0.090127,-0.412556
8.069783,0.075884,-0.085876,-0.410390
8.089833,0.076950,-0.086958,-0.408256
8.089833,0.076950,-0.086958,-0.408256
8.099843,0.081225,-0.085934,-0.401830
8.109883,0.073758,-0.089119,-0.400798
8.119893,0.083361,-0.083800,-0.402882
8.129933,0.069494,-0.089105,-0.400809
8.139943,0.076970,-0.087024,-0.394370
8.170034,0.057788,-0.088044,-0.391223
8.170034,0.057788,-0.088044,-0.391223
8.180043,0.056708,-0.095537,-0.386988
8.190084,0.055673,-0.084859,-0.385873
8.200093,0.050338,-0.086978,-0.385897
8.210134,0.055656,-0.094501,-0.379509
8.230184,0.056723,-0.097738,-0.373112
8.230184,0.056723,-0.097738,-0.373112
8.240193,0.057814,-0.090281,-0.369869
8.250234,0.069559,-0.083922,-0.367670
8.260243,0.057819,-0.090297,-0.366665
8.270284,0.075933,-0.096804,-0.358100
8.280324,0.061019,-0.094624,-0.357062
8.300374,0.066370,-0.088249,-0.353813
8.310384,0.056775,-0.089286,-0.353844
8.320424,0.069552,-0.094672,-0.352766
8.330434,0.052505,-0.093559,-0.350671
8.340474,0.058916,-0.088245,-0.349560
8.350484,0.046125,-0.088199,-0.350664
8.360524,0.043987,-0.090327,-0.350680
8.370534,0.040782,-0.097833,-0.342178
8.380574,0.041875,-0.082840,-0.351718
8.390584,0.034416,-0.084977,-0.346408
8.400624,0.032283,-0.083887,-0.349613
8.410634,0.042922,-0.096787,-0.338963
8.420674,0.044010,-0.089320,-0.337856
8.440728,0.037676,-0.065795,-0.339899
8.440728,0.037676,-0.065795,-0.339899
8.450738,0.049357,-0.080779,-0.341006
8.460779,0.051488,-0.089400,-0.326086
8.470788,0.048314,-0.081924,-0.323923
8.480829,0.048362,-0.064843,-0.322774
8.490838,0.039827,-0.068019,-0.322812
8.510919,0.047256,-0.086253,-0.311128
8.510919,0.047256,-0.086253,-0.311128
8.520929,0.050481,-0.076657,-0.310005
8.530969,0.043051,-0.070266,-0.301450
8.540979,0.040892,-0.076636,-0.307895
8.551019,0.046207,-0.086306,-0.299380
8.561029,0.041957,-0.085254,-0.292978
8.571069,0.041992,-0.072439,-0.292917
8.581079,0.041983,-0.076721,-0.290801
8.591119,0.044091,-0.088500,-0.285510
8.601129,0.047302,-0.086400,-0.280150
8.611169,0.053723,-0.076810,-0.280087
8.621179,0.047328,-0.076789,-0.280104
8.631219,0.051604,-0.076843,-0.271547
8.651269,0.050545,-0.076860,-0.267277
8.661279,0.056974,-0.066217,-0.264004
8.671319,0.038842,-0.069346,-0.267274
8.681329,0.055890,-0.072621,-0.264038
8.691369,0.039913,-0.070443,-0.261935
8.701379,0.043135,-0.064071,-0.256555
8.721460,0.038885,-0.058713,-0.257610
8.731469,0.034621,-0.061928,-0.252296
8.741510,0.038873,-0.067291,-0.250173
8.751519,0.037838,-0.057692,-0.246926
8.761560,0.030398,-0.050192,-0.246911
8.771570,0.034641,-0.058759,-0.244803
8.791620,0.035703,-0.066289,-0.234154
8.801660,0.036804,-0.054555,-0.231959
8.811670,0.033627,-0.048148,-0.229801
8.821710,0.018687,-0.056658,-0.226678
8.831720,0.037841,-0.069550,-0.223481
8.841760,0.029327,-0.067407,-0.219222
8.861810,0.017637,-0.058856,-0.212804
8.871820,0.024013,-0.068513,-0.207491
8.881860,0.024024,-0.066393,-0.204276
8.891870,0.016588,-0.056752,-0.205320
8.901910,0.021912,-0.063217,-0.196790
8.911920,0.013387,-0.062117,-0.197876
8.921960,0.025122,-0.062190,-0.190367
8.932000,0.010209,-0.058938,-0.190393
8.942010,0.016618,-0.054692,-0.189287
8.952050,0.024060,-0.065431,-0.181839
8.962060,0.010203,-0.065381,-0.182946
8.972101,0.023024,-0.055826,-0.179660
8.982110,0.008113,-0.052579,-0.178618
9.002160,0.000629,-0.062176,-0.176548
9.012201,0.015570,-0.057978,-0.171145
9.022210,-0.001458,-0.047228,-0.174346
9.032251,-0.000391,-0.046159,-0.175406
9.042260,-0.000405,-0.054733,-0.169038
9.052301,0.003856,-0.056893,-0.166900
9.072351,0.010271,-0.050516,-0.164715
9.082361,0.012428,-0.043063,-0.161470
9.092401,0.002823,-0.050532,-0.156190
9.102411,0.020923,-0.058072,-0.155108
9.112451,0.013473,-0.055927,-0.151914
9.122461,0.018838,-0.040978,-0.155033
9.132501,0.011378,-0.043110,-0.150791
9.142511,0.012408,-0.060235,-0.143391
9.152551,0.019869,-0.065645,-0.133782
9.162591,0.011351,-0.062413,-0.133791
9.172601,-0.005653,-0.039891,-0.142277
9.182641,-0.004595,-0.039869,-0.147615
9.192651,0.002826,-0.062391,-0.132746
9.212701,0.010302,-0.063538,-0.120980
9.222741,-0.002426,-0.036763,-0.128366
9.232751,-0.006697,-0.038880,-0.129456
9.242791,0.006052,-0.059258,-0.119904
9.252801,0.020972,-0.063614,-0.112405
9.262841,0.013552,-0.052946,-0.104898
9.282892,0.016785,-0.034756,-0.114417
9.292901,0.017811,-0.052944,-0.108091
9.302942,0.030601,-0.050835,-0.111250
9.312951,0.008266,-0.036904,-0.105905
9.322992,0.017842,-0.042270,-0.106972
9.333001,0.001827,-0.052902,-0.105998
9.343042,0.012521,-0.042278,-0.101646
9.353051,-0.004519,-0.035800,-0.104867
9.363092,-0.001329,-0.039019,-0.103805
9.373132,-0.003472,-0.044362,-0.101700
9.383142,-0.010949,-0.050750,-0.100682
9.393182,-0.004542,-0.047577,-0.098513
9.403192,-0.011978,-0.031474,-0.111276
9.443301,-0.000267,-0.049783,-0.086762
9.443301,-0.000267,-0.049783,-0.086762
9.453341,0.013605,-0.041264,-0.090956
9.463351,0.004014,-0.040160,-0.092045
9.473391,0.018913,-0.053064,-0.083519
9.483401,0.010391,-0.049817,-0.086732
9.493441,0.016815,-0.044544,-0.077076
9.503451,0.006171,-0.037014,-0.081342
9.513491,0.008287,-0.045589,-0.076036
9.523501,0.008279,-0.050949,-0.071788
9.533541,0.007237,-0.040251,-0.074945
9.543551,0.002975,-0.043472,-0.068563
9.553591,0.000830,-0.046653,-0.071789
9.563601,0.008313,-0.041363,-0.066402
9.573642,-0.003423,-0.043441,-0.070717
9.583682,0.006171,-0.044555,-0.067491
9.593692,0.000851,-0.043490,-0.063228
9.603732,0.006173,-0.046716,-0.062160
9.613742,-0.001271,-0.041357,-0.061087
9.623782,0.004071,-0.037108,-0.059984
9.633792,-0.012978,-0.031678,-0.067483
9.643832,0.008315,-0.043524,-0.061071
9.653842,-0.007663,-0.046732,-0.049380
9.663882,0.004083,-0.032836,-0.059964
9.673892,-0.015082,-0.026371,-0.058918
9.683932,-0.004425,-0.025328,-0.061020
9.703982,-0.000189,-0.041411,-0.050402
9.713992,-0.007618,-0.028562,-0.052499
9.724032,-0.003336,-0.025402,-0.046063
9.734042,-0.008685,-0.031787,-0.047176
9.744082,0.000867,-0.047848,-0.045089
9.754092,0.005158,-0.043640,-0.034375
9.774142,-0.000143,-0.029710,-0.040733
9.784182,0.003034,-0.037196,-0.040760
9.794192,0.013664,-0.054378,-0.027993
9.804232,0.001940,-0.053262,-0.030157
9.814273,0.019034,-0.036210,-0.034302
9.824282,-0.008677,-0.038276,-0.030115
9.844332,0.006206,-0.056515,-0.022683
9.854373,0.014775,-0.041596,-0.021520
9.864382,-0.001194,-0.031908,-0.026860
9.874423,0.005185,-0.039419,-0.023673
9.884433,0.000897,-0.049022,-0.022662
9.894473,0.009420,-0.052269,-0.019449
9.914523,-0.007571,-0.024401,-0.028978
9.924533,-0.015050,-0.032936,-0.025835
9.934573,-0.007620,-0.045790,-0.022670
9.944583,-0.010811,-0.046878,-0.016275
9.954623,-0.003317,-0.030848,-0.023656
9.964633,-0.023530,-0.015821,-0.025777
9.974673,-0.011830,-0.022247,-0.030048
9.994723,0.007307,-0.043703,-0.022619
10.004733,0.002043,-0.024503,-0.013997
10.014773,0.002043,-0.019083,-0.021487
10.024813,-0.004385,-0.035147,-0.017270
10.024813,-0.004385,-0.035147,-0.017270
10.044863,0.008408,-0.036277,-0.012967
10.054873,-0.001160,-0.025551,-0.016147
10.064913,0.010550,-0.033085,-0.011878
10.074923,-0.004401,-0.043716,-0.011969
10.084964,0.002013,-0.037334,-0.010853
10.094973,-0.003304,-0.031967,-0.012979
10.105014,-0.005434,-0.034121,-0.007654
10.105014,-0.005434,-0.034121,-0.007654
10.115023,-0.011830,-0.036251,-0.004477
10.135073,-0.022474,-0.027643,-0.010875
10.145114,-0.004352,-0.026634,-0.010820
10.165164,-0.007568,-0.035182,-0.007665
10.175173,-0.016074,-0.027679,-0.007653
10.185214,-0.020337,-0.027665,-0.007665
10.195224,-0.021403,-0.023354,-0.015125
10.195224,-0.021403,-0.023354,-0.015125
10.205264,-0.013948,-0.027671,-0.010852
10.215274,-0.024612,-0.031923,-0.007697
10.225314,0.002013,-0.041641,-0.003396
10.235354,-0.023541,-0.029790,-0.007683
10.245364,-0.001134,-0.020247,-0.008645
10.255404,-0.019275,-0.027658,-0.009798
10.275454,-0.008628,-0.033043,-0.007658
10.295504,-0.006486,-0.032007,-0.002306
10.305514,-0.005414,-0.028796,-0.004424
10.305514,-0.005414,-0.028796,-0.004424
10.315554,-0.006499,-0.036274,-0.003394
10.325564,-0.004363,-0.036296,-0.000184
10.355654,-0.011810,-0.033083,0.003015
10.355654,-0.011810,-0.033083,0.003015
10.365664,-0.007549,-0.030936,-0.002304
10.375704,-0.018239,-0.043726,-0.000257
10.385714,-0.001189,-0.042693,-0.004478
10.395755,-0.015016,-0.035198,0.000860
10.415805,-0.011843,-0.041596,-0.003434
10.415805,-0.011843,-0.041596,-0.003434
10.425814,-0.009719,-0.049119,0.005082
10.435855,-0.016072,-0.028762,-0.004453
10.445902,-0.013913,-0.017006,-0.007596
10.455943,-0.020316,-0.022346,-0.003367
10.465983,-0.010762,-0.036260,-0.003406
10.496043,-0.026688,-0.012703,-0.005475
10.506083,-0.010767,-0.037323,-0.004479
10.516093,-0.013957,-0.036259,-0.001278
10.526133,-0.004335,-0.025611,-0.001201
10.536143,-0.023506,-0.015897,-0.009754
10.546183,-0.001158,-0.033097,-0.001228
10.556193,-0.007554,-0.035227,0.001949
10.566233,0.003120,-0.028849,0.000940
10.576243,-0.003246,-0.017071,-0.001158
10.586283,-0.003261,-0.020255,-0.005446
10.596293,0.003099,-0.039554,0.006231
10.606333,0.004168,-0.036339,0.003044
10.636393,-0.011820,-0.037360,0.004063
10.636393,-0.011820,-0.037360,0.004063
10.646433,0.003102,-0.039564,0.008367
10.656443,-0.016072,-0.031996,0.001941
10.666483,-0.004317,-0.020282,0.000960
10.676524,-0.020313,-0.022356,-0.001230
10.696574,-0.006488,-0.037387,0.006214
10.696574,-0.006488,-0.037387,0.006214
10.706584,0.005277,-0.023552,0.008449
10.716624,-0.010697,-0.014921,0.000968
10.726634,0.002081,-0.021391,0.005246
10.736674,0.007389,-0.027806,0.003094
10.746684,0.002064,-0.029954,0.009478
10.766734,0.009533,-0.026775,0.009514
10.766734,0.009533,-0.026775,0.009514
10.776774,-0.003248,-0.021373,0.005231
10.786784,0.009548,-0.020357,0.007408
10.796824,-0.007527,-0.027772,0.006257
10.806834,0.007389,-0.028884,0.005225
10.816874,0.005273,-0.024615,0.007376
10.836924,0.003139,-0.023525,0.004170
10.836924,0.003139,-0.023525,0.004170
10.846934,-0.001150,-0.034201,0.006244
10.856974,-0.006469,-0.030985,0.007313
10.866984,-0.003264,-0.028864,0.008400
10.877024,-0.006447,-0.021358,0.004154
10.887065,-0.016067,-0.032011,0.005145
10.907115,-0.008587,-0.024555,0.004133
10.907115,-0.008587,-0.024555,0.004133
10.917124,-0.009647,-0.023494,0.006271
10.927165,-0.011798,-0.030967,0.007298
10.937174,-0.001132,-0.027793,0.006275
10.947215,-0.013910,-0.022402,0.004128
10.957224,-0.005392,-0.027789,0.008399
10.987315,-0.011769,-0.019210,0.005218
10.987315,-0.011769,-0.019210,0.005218
10.997325,0.003145,-0.022467,0.006312
11.007365,-0.014974,-0.020252,0.001999
11.017375,0.008479,-0.021422,0.007400
11.027415,-0.012833,-0.019212,0.006283
11.047465,-0.003237,-0.016024,0.003120
11.047465,-0.003237,-0.016024,0.003120
11.057475,-0.006447,-0.022436,0.006285
11.067515,-0.005380,-0.021367,0.005225
11.077525,-0.004305,-0.018166,0.005243
11.087565,-0.013892,-0.014921,0.003096
11.097575,0.000993,-0.033165,0.011596
11.127665,-0.002182,-0.023533,0.009497
11.127665,-0.002182,-0.023533,0.009497
11.137705,-0.003256,-0.028889,0.013741
11.147715,0.000982,-0.037442,0.012644
11.157755,-0.000064,-0.029958,0.011608
11.167765,-0.001102,-0.020348,0.012719
11.187815,-0.003297,-0.043840,0.013670
11.187815,-0.003297,-0.043840,0.013670
11.197856,0.004192,-0.033180,0.012673
11.207865,-0.013887,-0.020322,0.015889
11.217906,-0.004306,-0.021395,0.010569
11.227915,-0.002202,-0.036394,0.019050
11.237956,-0.003257,-0.029962,0.014804
11.258006,-0.006416,-0.017147,0.016993
11.268015,0.002093,-0.023582,0.016986
11.278056,-0.005374,-0.024616,0.014824
11.288065,-0.003236,-0.023565,0.016971
11.298106,-0.006402,-0.010729,0.014887
11.308116,-0.004307,-0.024624,0.015895
11.328196,-0.001087,-0.018242,0.019139
11.338206,-0.012786,-0.006432,0.013821
11.348246,-0.011753,-0.018182,0.013768
11.358256,-0.001099,-0.022514,0.019118
11.368296,-0.004298,-0.021421,0.015910
11.378306,0.001047,-0.019332,0.022344
11.408396,-0.009635,-0.027841,0.022274
11.408396,-0.009635,-0.027841,0.022274
11.418406,-0.001106,-0.024645,0.018040
11.428446,-0.004296,-0.022504,0.019110
11.438455,-0.010688,-0.021415,0.019097
11.448495,-0.003214,-0.015017,0.015943
11.468545,-0.003243,-0.027852,0.020155
11.468545,-0.003243,-0.027852,0.020155
11.478555,-0.011755,-0.022485,0.020157
11.488596,-0.022385,-0.010688,0.016979
11.498605,-0.018133,-0.012822,0.013776
11.508646,-0.010716,-0.031021,0.017983
11.518655,-0.019245,-0.033140,0.020086
11.538736,-0.021318,-0.011774,0.020181
11.548746,-0.017077,-0.019258,0.019090
11.558786,-0.013895,-0.026759,0.022267
11.568796,-0.007512,-0.029974,0.020133
11.578836,-0.012802,-0.015001,0.019121
11.588846,-0.013855,-0.008574,0.015944
11.618936,0.011702,-0.021513,0.024499
11.618936,0.011702,-0.021513,0.024499
11.628946,-0.013885,-0.022483,0.021220
11.638986,0.013839,-0.018306,0.022384
11.648996,-0.010675,-0.020377,0.025511
11.659036,0.001035,-0.024682,0.024455
11.669046,-0.002166,-0.026813,0.025504
11.679086,-0.014936,-0.017140,0.021242
11.689096,-0.001097,-0.022519,0.020186
11.699136,-0.013884,-0.021410,0.020156
11.709146,-0.010668,-0.012861,0.017001
11.719186,-0.010693,-0.025707,0.023350
11.729196,-0.009623,-0.023570,0.022294
11.759286,-0.010686,-0.017113,0.012708
11.759286,-0.010686,-0.017113,0.012708
11.769327,-0.006421,-0.022517,0.023376
11.779336,0.005340,-0.004360,0.014949
11.789377,-0.007430,-0.001150,0.022407
11.799387,-0.002119,-0.006497,0.020259
11.829477,0.000023,0.002080,0.011760
11.829477,0.000023,0.002080,0.011760
11.839487,0.006403,-0.007587,0.019210
11.849527,-0.007477,-0.016081,0.018063
11.859537,0.004249,-0.015051,0.018100
11.869577,-0.008522,-0.006451,0.014901
11.899637,-0.007496,-0.024639,0.021227
11.899637,-0.007496,-0.024639,0.021227
11.909677,-0.008526,-0.008592,0.015959
11.919687,-0.007448,-0.001094,0.010656
11.929727,-0.014941,-0.014968,0.013775
11.939737,-0.007489,-0.020352,0.018043
11.959787,-0.008536,-0.013946,0.019138
11.959787,-0.008536,-0.013946,0.019138
11.969827,-0.015988,-0.008562,0.014870
11.979867,-0.013891,-0.024619,0.021209
11.989877,-0.013879,-0.019269,0.019098
11.999918,-0.012799,-0.013933,0.019127
12.009927,-0.020271,-0.018180,0.019086
12.029977,-0.007493,-0.023571,0.021232
12.029977,-0.007493,-0.023571,0.021232
12.040018,-0.012818,-0.022491,0.022291
12.050027,-0.009620,-0.024658,0.026562
12.060068,-0.004312,-0.033223,0.027604
12.070077,-0.002174,-0.028944,0.024426
12.080118,-0.001080,-0.019341,0.025543
12.110178,-0.008566,-0.027855,0.024413
12.110178,-0.008566,-0.027855,0.024413
12.120218,-0.000015,-0.018266,0.023414
12.130228,-0.017080,-0.025711,0.028673
12.140268,-0.004319,-0.034281,0.025463
12.150278,-0.003242,-0.031086,0.026549
12.170328,-0.014938,-0.017135,0.020174
12.170328,-0.014938,-0.017135,0.020174
12.180368,-0.014963,-0.029980,0.026522
12.190408,-0.001116,-0.034307,0.028676
12.200418,-0.010679,-0.019289,0.021244
12.210458,-0.019161,-0.003243,0.021296
12.220468,-0.012820,-0.019252,0.014828
12.240518,-0.000019,-0.020407,0.024472
12.250558,-0.004250,-0.006490,0.020254
12.260568,-0.009620,-0.023580,0.024431
12.270608,0.006361,-0.024689,0.022333
12.280618,0.006373,-0.021496,0.024485
12.290658,-0.009589,-0.011827,0.023418
12.300668,0.000005,-0.007556,0.017056
12.310709,0.004228,-0.024677,0.021259
12.320718,-0.004326,-0.032105,0.016928
12.330759,-0.000021,-0.019324,0.021273
12.340768,-0.008514,-0.006476,0.020242
12.350809,-0.010689,-0.022488,0.020160
12.360818,-0.002189,-0.034283,0.024401
12.390909,-0.010665,-0.011794,0.017006
12.390909,-0.010665,-0.011794,0.017006
12.400918,-0.017107,-0.032089,0.022233
12.410959,-0.006469,-0.041755,0.026490
12.420999,-0.007493,-0.023571,0.021232
12.431009,-0.020225,-0.000015,0.017035
12.451085,-0.006485,-0.047089,0.025396
12.451085,-0.006485,-0.047089,0.025396
12.461125,-0.008548,-0.020369,0.022312
12.471135,-0.012774,-0.003238,0.015973
12.481175,-0.022399,-0.019261,0.023348
12.491185,-0.010717,-0.032094,0.019046
12.501225,0.007385,-0.037488,0.018003
12.521275,-0.007450,-0.004318,0.014914
12.531285,-0.009642,-0.029972,0.021196
12.541325,0.006339,-0.034316,0.025492
12.551335,-0.007502,-0.027853,0.023348
12.561375,-0.011712,-0.007539,0.021296
12.571385,-0.002150,-0.017171,0.019141
12.601476,-0.017066,-0.016060,0.020173
12.601476,-0.017066,-0.016060,0.020173
12.611485,-0.006401,-0.011807,0.017018
12.621526,-0.000044,-0.030023,0.025495
12.631566,-0.008583,-0.037497,0.030777
12.641576,-0.001091,-0.022539,0.024459
12.661626,-0.006432,-0.025716,0.022293
12.671666,-0.011749,-0.021427,0.022299
12.681676,-0.004285,-0.022539,0.026587
12.691716,-0.018178,-0.036377,0.026483
12.701726,0.004233,-0.018229,0.012744
12.711766,-0.015966,-0.005399,0.023431
12.721776,-0.004303,-0.032176,0.031882
12.731816,-0.012849,-0.035316,0.024366
12.741826,0.001056,-0.017207,0.024490
12.751866,-0.013872,-0.018216,0.022308
12.761876,-0.006416,-0.018225,0.019124
12.771916,0.001052,-0.017197,0.022354
12.781926,-0.010687,-0.024649,0.025491
12.791966,-0.018152,-0.025688,0.024397
12.801976,-0.008536,-0.011790,0.014876
12.812016,-0.010673,-0.017153,0.021254
12.822026,-0.013894,-0.025686,0.021204
12.832066,-0.010677,-0.018216,0.020180
12.842107,-0.013908,-0.031026,0.021179
12.852116,-0.006432,-0.025716,0.022293
12.862157,-0.013857,-0.010720,0.018071
12.872166,-0.013893,-0.022457,0.015879
12.882207,-0.009639,-0.028904,0.021201
12.892216,-0.012842,-0.033186,0.025445
12.902257,-0.016021,-0.023539,0.020140
12.912267,-0.013862,-0.011783,0.016997
12.922307,-0.019221,-0.024596,0.020127
12.932317,-0.014984,-0.035299,0.022224
12.942357,-0.007493,-0.023571,0.021232
12.952367,-0.014941,-0.018202,0.020169
12.962407,-0.009629,-0.024627,0.020153
12.972417,-0.005372,-0.027855,0.022286
12.982457,-0.010677,-0.018216,0.020180
12.992467,-0.000035,-0.025742,0.023379
13.002507,-0.006442,-0.033222,0.028667
13.012517,-0.001090,-0.023617,0.026591
13.022557,-0.002153,-0.021468,0.024461
13.032567,-0.025559,-0.004290,0.021273
13.042607,-0.008558,-0.021417,0.018035
13.052617,-0.008599,-0.041753,0.027552
13.062657,-0.007481,-0.021456,0.025515
13.082707,-0.011721,-0.009664,0.019150
13.092747,-0.011758,-0.023552,0.020152
13.102757,-0.000080,-0.044990,0.028629
13.112798,-0.006405,-0.015026,0.020207
13.122807,-0.005289,0.004198,0.019233
13.132848,-0.016007,-0.020350,0.023360
13.152898,-0.004313,-0.032145,0.025473
13.162907,0.004269,-0.009726,0.021330
13.172948,-0.005320,-0.010783,0.025571
13.182957,0.008490,-0.020379,0.012746
13.192998,0.005294,-0.019296,0.011674
13.203007,-0.019151,-0.014048,0.047950
13.213048,-0.002160,-0.028989,0.034040
13.223058,-0.000132,-0.041594,-0.011947
13.233098,-0.015954,0.001024,0.020257
13.243108,-0.018082,-0.001136,0.026650
13.253148,-0.019272,-0.043824,0.021104
13.263158,-0.001109,-0.030020,0.025492
13.273198,-0.013937,-0.032013,0.004083
13.283238,-0.017059,-0.013929,0.021251
13.293248,-0.020235,-0.001058,0.011689
13.303288,-0.010745,-0.043857,0.022195
13.313298,-0.004333,-0.039621,0.025438
13.323338,-0.019181,-0.002104,0.006346
13.333348,-0.014917,-0.004274,0.010621
13.343388,-0.025653,-0.038464,0.021111
13.353398,-0.010734,-0.035273,0.013690
13.363438,-0.025607,-0.015986,0.010536
13.373448,-0.031976,-0.004198,0.006301
13.383488,-0.019237,-0.026702,0.013707
13.393498,-0.005441,-0.051334,0.018970
13.403538,-0.007489,-0.021430,0.020174
13.413548,-0.011715,-0.004299,0.013834
13.433598,-0.000056,-0.032139,0.021212
13.443666,-0.004339,-0.040679,0.023296
13.453675,-0.019194,-0.012834,0.016978
13.463716,-0.009578,-0.001092,0.011719
13.473725,-0.021366,-0.028856,0.019032
13.483766,-0.006459,-0.035322,0.021179
13.503816,-0.022372,-0.005343,0.015936
13.513856,-0.013881,-0.018186,0.015899
13.523866,-0.013907,-0.029953,0.020116
13.533906,-0.012818,-0.019257,0.015897
13.543916,-0.023432,-0.004282,0.018075
13.553956,-0.015992,-0.010703,0.015928
13.574006,-0.010676,-0.018221,0.021249
13.584016,-0.012789,-0.007500,0.013816
13.594056,-0.008543,-0.014999,0.015929
13.604066,-0.012814,-0.017116,0.014839
13.614106,-0.006456,-0.032103,0.017990
13.624116,-0.006438,-0.025696,0.018020
13.644166,-0.014954,-0.020313,0.014818
13.654206,-0.000077,-0.037458,0.016914
13.664216,-0.008603,-0.038509,0.019022
13.674256,-0.001103,-0.022499,0.015914
13.684266,-0.007497,-0.021405,0.014833
13.694306,-0.018165,-0.024569,0.013720
13.714357,-0.017137,-0.039534,0.015789
13.724397,-0.017085,-0.018155,0.011617
13.734407,-0.014968,-0.024580,0.013729
13.744447,-0.008602,-0.037436,0.017959
13.754457,-0.011790,-0.034222,0.017965
13.764497,-0.014953,-0.008470,-0.005422
13.784547,-0.016078,-0.040595,0.013650
13.794557,-0.001128,-0.032115,0.016936
13.804597,-0.008578,-0.029970,0.020131
13.814607,-0.020273,-0.011712,0.006298
13.824647,-0.003230,-0.014966,0.005261
13.834657,-0.013929,-0.036345,0.016881
13.844697,0.002072,-0.028902,0.012688
13.854707,0.003172,-0.019319,0.018077
13.864747,-0.010687,-0.018186,0.013771
13.874757,-0.003239,-0.020326,0.009509
13.884797,-0.011784,-0.028857,0.012649
13.894807,-0.005383,-0.025664,0.010546
13.904847,-0.012852,-0.030999,0.014773
13.924897,-0.011768,-0.022444,0.011612
13.934938,-0.021375,-0.027753,0.011560
13.944947,-0.007516,-0.026730,0.011603
13.954988,-0.014956,-0.019230,0.011618
13.954988,-0.014956,-0.019230,0.011618
13.975038,-0.006479,-0.039568,0.015818
13.995088,-0.006414,-0.011767,0.008472
14.005097,-0.009650,-0.025640,0.008398
14.005097,-0.009650,-0.025640,0.008398
14.025148,-0.008598,-0.033139,0.012638
14.035188,-0.008566,-0.020314,0.010562
14.045198,-0.011776,-0.022419,0.006271
14.065248,0.000973,-0.039567,0.010498
14.075288,-0.010745,-0.036315,0.008344
14.085298,-0.007499,-0.018166,0.007371
14.085298,-0.007499,-0.018166,0.007371
14.105348,-0.005424,-0.037385,0.005149
14.105348,-0.005424,-0.037385,0.005149
14.125398,-0.014969,-0.020267,0.005204
14.125398,-0.014969,-0.020267,0.005204
14.135438,-0.009656,-0.026697,0.006256
14.145478,-0.014994,-0.028806,0.004095
14.165528,-0.012858,-0.025594,0.000912
14.165528,-0.012858,-0.025594,0.000912
14.175538,-0.008595,-0.024530,-0.001208
14.185578,-0.011782,-0.023477,0.004129
14.195588,-0.005402,-0.027759,0.001990
14.215638,-0.004308,-0.017078,0.000976
14.225679,-0.004317,-0.020282,0.000960
14.225679,-0.004317,-0.020282,0.000960
14.235688,-0.005428,-0.039526,0.006207
14.245729,-0.000057,-0.020286,-0.001164
14.255738,-0.004292,-0.010665,-0.000062
14.265779,-0.013921,-0.023444,-0.001218
14.285829,-0.002199,-0.024555,-0.000122
14.285829,-0.002199,-0.024555,-0.000122
14.295838,0.002086,-0.016021,-0.001138
14.305879,-0.002173,-0.013866,-0.002208
14.315888,-0.006455,-0.020255,-0.003318
14.325929,0.005234,-0.035264,0.000916
14.335939,-0.000073,-0.026698,-0.000127
14.355989,-0.002179,-0.014924,-0.004349
14.355989,-0.002179,-0.014924,-0.004349
14.366029,0.008443,-0.031003,0.000945
14.376069,0.010594,-0.024607,0.002049
14.386079,-0.000030,-0.009601,-0.002182
14.396119,0.002100,-0.008525,-0.005376
14.406129,0.001001,-0.022420,-0.002240
14.436219,0.001034,-0.008522,-0.005379
14.436219,0.001034,-0.008522,-0.005379
14.446255,0.005274,-0.018157,-0.003276
14.456295,0.006289,-0.038466,-0.000165
14.466305,0.004184,-0.027770,-0.002256
14.476345,-0.002172,-0.009559,-0.009665
14.506405,0.011632,-0.029910,-0.006519
14.506405,0.011632,-0.029910,-0.006519
14.516445,-0.008583,-0.015951,-0.008645
14.526455,-0.008569,-0.008455,-0.012882
14.536496,-0.006476,-0.025574,-0.007616
14.546505,-0.002259,-0.041602,-0.008749
14.576596,-0.007519,-0.015949,-0.009710
14.576596,-0.007519,-0.015949,-0.009710
14.586636,0.004135,-0.043774,-0.005537
14.596646,0.002049,-0.028831,-0.002267
14.606686,0.001031,-0.008511,-0.007515
14.616696,-0.011780,-0.017018,-0.006522
14.646786,0.002093,-0.012812,-0.002191
14.646786,0.002093,-0.012812,-0.002191
14.656796,-0.002157,-0.007453,-0.003246
14.666836,0.002064,-0.023491,-0.002242
14.676846,0.009513,-0.027787,-0.002242
14.686886,0.004230,-0.009605,-0.004307
14.716946,0.005260,-0.024575,-0.001170
14.716946,0.005260,-0.024575,-0.001170
14.726986,-0.001118,-0.014912,-0.007551
14.736996,-0.005355,-0.005287,-0.007517
14.747036,-0.012843,-0.014869,-0.008652
14.757046,0.002043,-0.029889,-0.004409
14.787136,0.002064,-0.022413,-0.004373
14.787136,0.002064,-0.022413,-0.004373
14.797146,-0.001153,-0.028805,-0.005481
14.807186,0.011651,-0.023507,-0.005420
14.817227,0.013792,-0.020310,-0.005399
14.827237,0.005275,-0.016006,-0.006470
14.857327,0.015926,-0.019249,-0.005388
14.867337,-0.000071,-0.022396,-0.006515
14.877377,0.013765,-0.029922,-0.005445
14.887387,0.007373,-0.027755,-0.007588
14.897427,0.000994,-0.024551,-0.003318
14.927487,-0.015002,-0.026624,-0.005508
14.927487,-0.015002,-0.026624,-0.005508
14.937527,0.002060,-0.021325,-0.008641
14.947537,0.001004,-0.020274,-0.004366
14.957577,-0.005413,-0.026645,-0.007619
14.967587,0.014847,-0.024591,-0.004348
14.987637,-0.005384,-0.015966,-0.007568
14.987637,-0.005384,-0.015966,-0.007568
14.997677,-0.001144,-0.025602,-0.005465
15.007687,-0.001170,-0.035213,-0.005511
15.017727,0.013782,-0.024587,-0.004351
15.027768,-0.009635,-0.014915,-0.001165
15.037777,0.002058,-0.023471,-0.006515
15.067868,-0.005387,-0.017034,-0.007573
15.077877,0.003144,-0.017077,-0.004345
15.087918,-0.005388,-0.018107,-0.006510
15.097927,0.001014,-0.017075,-0.003283
15.107968,0.001017,-0.013851,-0.007540
15.128018,-0.002192,-0.021347,-0.001175
15.138028,0.002074,-0.018136,-0.005421
15.148068,-0.004288,-0.004217,-0.008578
15.158078,-0.003234,-0.006336,-0.012857
15.168118,-0.006469,-0.022365,-0.008669
15.178128,0.004184,-0.027770,-0.002256
15.208218,-0.011776,-0.013799,-0.009712
15.208218,-0.011776,-0.013799,-0.009712
15.218228,-0.001133,-0.020252,-0.007576
15.228268,-0.016093,-0.035159,-0.006620
15.238308,-0.010750,-0.027681,-0.010843
15.248318,-0.011780,-0.015940,-0.008654
15.268368,-0.015007,-0.026609,-0.008713
15.278408,-0.007539,-0.024503,-0.007614
15.288418,-0.017124,-0.021263,-0.008694
15.298458,-0.003256,-0.015963,-0.009698
15.308468,-0.006430,-0.007409,-0.009667
15.318508,-0.005392,-0.015941,-0.012909
15.338559,0.010615,-0.011746,-0.007504
15.348568,-0.007486,-0.007436,-0.003261
15.358609,-0.002194,-0.018107,-0.008637
15.368618,0.007411,-0.013872,-0.007523
15.378659,-0.008569,-0.014918,-0.001162
15.388668,-0.000066,-0.022411,-0.003311
15.408718,-0.008545,-0.003146,-0.006448
15.418759,0.001030,-0.010662,-0.004320
15.428768,0.002086,-0.014943,-0.003270
15.438809,-0.000032,-0.010669,-0.002187
15.448840,-0.000043,-0.012790,-0.005402
15.458880,0.003166,-0.008529,-0.005373
15.488970,0.004193,-0.025644,-0.000110
15.488970,0.004193,-0.025644,-0.000110
15.498980,-0.005352,-0.004219,-0.007512
15.509020,-0.000001,0.004312,-0.008525
15.519030,-0.004311,-0.012761,-0.008618
15.529070,0.007388,-0.024571,-0.003300
15.549120,-0.007479,-0.002071,-0.008576
15.559130,-0.014962,-0.008439,-0.011832
15.569170,0.004177,-0.025594,-0.010792
15.579180,-0.001138,-0.024544,-0.003324
15.589220,-0.005382,-0.012742,-0.011826
15.599230,-0.010695,-0.006312,-0.012878
15.629321,-0.005396,-0.021316,-0.005457
15.629321,-0.005396,-0.021316,-0.005457
15.639330,-0.006421,-0.002049,-0.013914
15.649371,-0.018155,-0.007366,-0.010767
15.659380,-0.008603,-0.021275,-0.011875
15.669421,-0.000077,-0.023454,-0.008657
15.689471,-0.009621,-0.005263,-0.009665
15.699511,-0.016029,-0.010587,-0.008640
15.709521,-0.007503,-0.010615,-0.008617
15.719561,-0.014965,-0.009507,-0.011837
15.729571,-0.009615,-0.003127,-0.009655
15.739611,-0.005369,-0.013861,-0.001149
15.759661,-0.003216,-0.002085,-0.008564
15.769671,-0.008525,0.007564,-0.012806
15.779711,-0.005397,-0.022389,-0.004394
15.789721,-0.002210,-0.026676,-0.003337
15.799761,0.010634,-0.006422,-0.004274
15.809771,-0.013877,-0.003118,-0.008599
15.839861,0.009526,-0.024599,0.000978
15.849871,-0.008549,-0.005287,-0.005390
15.859911,-0.005323,0.009694,-0.013856
15.869921,-0.007498,-0.008474,-0.009675
15.879961,0.000986,-0.026681,-0.004396
15.900011,0.004273,0.007497,-0.007430
15.900011,0.004273,0.007497,-0.007430
15.910052,-0.009621,-0.006341,-0.007534
15.920061,0.008465,-0.015991,-0.011803
15.930102,0.015933,-0.019270,-0.001115
15.940112,-0.006435,-0.011701,-0.005414
15.950152,-0.007491,-0.004187,-0.012859
15.990252,-0.013870,0.000091,-0.009652
16.000262,-0.026673,-0.004135,-0.010775
16.010302,0.003115,-0.021293,-0.016115
16.020312,-0.006452,-0.019187,-0.003313
16.030352,-0.005368,-0.008476,-0.010737
16.040362,-0.004294,-0.006353,-0.008588
16.050402,-0.003241,-0.009545,-0.011804
16.060412,-0.003255,-0.017041,-0.007567
16.070452,-0.003235,-0.010644,-0.005400
16.080462,-0.003218,-0.001002,-0.011764
16.090502,-0.007509,-0.012750,-0.008627
16.110552,-0.001089,-0.004233,-0.007501
16.110552,-0.001089,-0.004233,-0.007501
16.120592,-0.002124,0.007523,-0.008516
16.130602,-0.019214,-0.008461,-0.004366
16.140643,0.004203,-0.014904,-0.012877
16.150652,-0.007482,-0.004217,-0.006450
16.160693,-0.024525,0.003349,-0.013939
16.180743,-0.018169,-0.020247,0.003059
16.190752,-0.005375,-0.012762,-0.007553
16.200793,-0.010671,0.001153,-0.010706
16.210802,-0.019176,0.010807,-0.013889
16.220843,-0.005365,-0.007408,-0.010732
16.230852,0.005248,-0.026690,-0.005453
16.250903,-0.004258,0.011847,-0.018115
16.250903,-0.004258,0.011847,-0.018115
16.260943,-0.004303,-0.007401,-0.012865
16.270953,-0.012833,-0.017055,0.002020
16.280993,-0.000056,-0.017056,-0.006490
16.291003,-0.019228,-0.009493,-0.011848
16.301043,-0.020239,0.015113,-0.020281
16.321093,-0.015007,-0.026609,-0.008713
16.321093,-0.015007,-0.026609,-0.008713
16.331133,-0.014962,-0.008439,-0.011832
16.341143,-0.026664,0.001225,-0.015023
16.351183,-0.014965,-0.008429,-0.013968
16.361193,-0.010712,-0.015954,-0.006514
16.371233,-0.008560,-0.007407,-0.008604
16.391283,0.001021,-0.011710,-0.008598
16.401293,-0.001116,-0.018151,-0.000089
16.411333,0.005271,-0.018147,-0.005412
16.421343,0.011718,0.002133,-0.007435
16.431383,-0.002118,0.010737,-0.010637
16.441393,0.007408,-0.019247,-0.000071
16.461437,0.007425,-0.012839,-0.000040
16.461437,0.007425,-0.012839,-0.000040
16.471478,-0.018113,0.009736,-0.013891
16.481487,-0.020247,0.005441,-0.007508
16.491528,-0.016043,-0.017005,-0.006534
16.501537,-0.009690,-0.031976,-0.006587
16.511578,-0.018168,-0.018096,-0.000136
16.531628,-0.014941,0.003343,-0.019253
16.531628,-0.014941,0.003343,-0.019253
16.541637,-0.016051,-0.019135,-0.007612
16.551678,0.012727,-0.025697,0.005255
16.561718,-0.014972,-0.013794,-0.008652
16.571728,-0.007491,-0.000958,-0.018185
16.581768,-0.006437,-0.009540,-0.010745
16.601818,0.003132,-0.019193,-0.008628
16.611828,-0.004346,-0.026654,-0.006547
16.621868,0.006342,-0.012780,-0.011793
16.631878,-0.019223,-0.006279,-0.013970
16.641918,-0.008613,-0.025552,-0.010827
16.651928,-0.003288,-0.027710,-0.009754
16.671978,-0.020300,-0.011626,-0.011861
16.682018,-0.008583,-0.011644,-0.016102
16.692028,-0.024585,-0.020160,-0.010845
16.702068,-0.008613,-0.024474,-0.012958
16.712078,-0.019267,-0.025527,-0.008720
16.722118,-0.019239,-0.011614,-0.015063
16.742169,-0.024607,-0.029787,-0.007686
16.752178,-0.013942,-0.025535,-0.010841
16.762219,-0.026677,-0.005197,-0.011849
16.772259,-0.026688,-0.007318,-0.015063
16.782269,-0.019261,-0.024470,-0.006578
16.792309,-0.028841,-0.018016,-0.009779
16.822369,-0.009640,-0.012743,-0.008633
16.822369,-0.009640,-0.012743,-0.008633
16.832409,-0.022445,-0.020193,-0.005499
16.842419,-0.005372,-0.013851,-0.003285
16.852459,-0.020294,-0.010568,-0.009720
16.862469,-0.010678,-0.002056,-0.009653
16.882519,-0.011800,-0.027728,-0.000164
16.892559,-0.004299,-0.010645,-0.004335
16.902569,-0.009591,0.007567,-0.012809
16.912609,-0.012820,-0.005247,-0.010742
16.922619,-0.004363,-0.034140,-0.004446
16.932659,0.003089,-0.039524,-0.000178
16.952709,-0.023486,-0.000880,-0.023570
16.962719,-0.020267,0.002272,-0.015000
16.972759,-0.027800,-0.030865,-0.003427
16.982800,-0.010795,-0.046929,-0.005593
16.992809,-0.013900,-0.014896,-0.002245
17.002850,-0.036271,-0.004083,-0.015075
17.022900,-0.017161,-0.035151,-0.007691
17.032909,-0.008672,-0.051218,-0.003471
17.042950,-0.016040,-0.017015,-0.004398
17.052960,-0.025572,0.010833,-0.014974
17.063000,-0.021372,-0.011602,-0.016137
17.073010,-0.006508,-0.043784,0.004048
17.103100,-0.015995,0.000077,-0.005385
17.113110,-0.010718,-0.017012,-0.008656
17.123150,-0.010768,-0.044859,0.008304
17.133160,0.005219,-0.034140,-0.010829
17.143200,-0.010686,-0.007416,-0.005406
17.153210,-0.012830,-0.015987,0.002025
17.163250,-0.010739,-0.026638,-0.005497
17.173260,0.000994,-0.026707,0.000945
17.183300,-0.028872,-0.028690,-0.010898
17.193310,-0.001100,-0.010661,-0.003258
17.203350,-0.021352,-0.010590,-0.004382
17.213390,-0.013945,-0.031988,-0.001258
17.233440,-0.009632,-0.011691,-0.005423
17.243450,-0.016008,-0.004189,-0.006473
17.253491,-0.011810,-0.027698,-0.006573
17.263500,0.004177,-0.030979,-0.001203
17.273541,-0.003258,-0.020265,-0.003310
17.283550,-0.012853,-0.015917,-0.012929
17.303600,-0.005414,-0.029875,-0.002293
17.313641,0.000979,-0.029890,-0.003343
17.323650,-0.004315,-0.015980,-0.005429
17.333691,-0.011780,-0.015940,-0.008654
17.343700,-0.011804,-0.025562,-0.006563
17.353741,-0.011817,-0.030907,-0.005520
17.373791,-0.026690,-0.011620,-0.008674
17.383801,-0.005409,-0.024505,-0.008677
17.393841,-0.018214,-0.031954,-0.005543
17.403851,-0.006469,-0.023443,-0.006538
17.413891,-0.017118,-0.020205,-0.006552
17.423931,-0.019266,-0.029840,-0.000194
17.443999,-0.010720,-0.021314,-0.002267
17.454009,-0.007550,-0.032009,-0.001241
17.464049,0.004177,-0.030979,-0.001203
17.474059,-0.001124,-0.023511,0.004159
17.484099,0.002061,-0.025637,-0.000116
17.494109,0.003125,-0.028865,0.004145
17.514159,0.002067,-0.027808,0.007352
17.524199,-0.011772,-0.018122,0.000950
17.534209,-0.005376,-0.018148,0.002036
17.544249,-0.014997,-0.027718,-0.000173
17.554259,-0.001134,-0.026710,0.003075
17.564300,-0.020292,-0.018114,0.005199
17.584350,-0.009613,-0.011751,0.007395
17.594359,-0.005370,-0.014934,-0.000085
17.604400,-0.000067,-0.024562,-0.000116
17.614409,-0.002172,-0.016022,0.002055
17.624450,-0.004303,-0.019249,0.008443
17.634459,-0.001135,-0.023476,-0.003319
17.644500,-0.001089,-0.009618,0.002088
17.654540,-0.009640,-0.018129,0.000956
17.664550,-0.002203,-0.027774,0.003067
17.674590,-0.009648,-0.024567,0.007335
17.684600,-0.007526,-0.021314,-0.004394
17.694640,-0.010703,-0.019213,0.005221
17.704650,-0.009676,-0.024481,-0.010825
17.724700,-0.013902,-0.022427,0.009469
17.734740,-0.020320,-0.020179,-0.009766
17.744750,-0.006442,-0.020295,0.005227
17.754790,-0.006458,-0.023479,0.000939
17.764800,-0.011763,-0.013840,-0.001166
17.774840,-0.018153,-0.013834,0.002021
17.784850,-0.006465,-0.026688,0.001992
17.804900,-0.009630,-0.016008,0.004171
17.804900,-0.009630,-0.016008,0.004171
17.824950,-0.011766,-0.018142,0.005223
17.834990,0.005278,-0.021401,0.005254
17.845000,-0.005359,-0.013891,0.005261
17.865081,-0.007492,-0.013879,0.004186
17.875091,-0.004315,-0.022443,0.006291
17.885131,-0.007492,-0.013879,0.004186
17.895141,-0.005344,-0.008551,0.005286
17.905181,-0.004290,-0.013905,0.007400
17.905181,-0.004290,-0.013905,0.007400
17.925231,-0.002171,-0.016027,0.003123
17.945281,0.005321,-0.006455,0.006393
17.945281,0.005321,-0.006455,0.006393
17.955291,0.003155,-0.020341,0.008458
17.965331,-0.003222,-0.009606,0.001014
17.985381,-0.004294,-0.016046,0.008458
17.985381,-0.004294,-0.016046,0.008458
17.995391,-0.000039,-0.014956,0.000997
18.035491,-0.017095,-0.017047,0.003077
18.035491,-0.017095,-0.017047,0.003077
18.045531,-0.011776,-0.015956,-0.005449
18.055541,-0.016031,-0.017045,0.002011
18.065581,-0.017144,-0.036279,0.005122
18.085631,-0.011740,-0.005296,-0.001126
18.095672,-0.006484,-0.033090,0.000894
18.105681,0.006336,-0.026765,0.009505
18.115722,-0.000042,-0.018180,0.005255
18.125731,-0.006466,-0.022375,-0.006533
18.135772,0.001025,-0.016032,0.002063
18.155822,-0.005416,-0.034177,0.004096
18.165832,0.004210,-0.023544,0.007378
18.175872,-0.011783,-0.023472,0.003061
18.185882,-0.002176,-0.019241,0.005244
18.195922,-0.008591,-0.027774,0.007322
18.205932,-0.002205,-0.030998,0.007325
18.246032,0.006354,-0.021435,0.011667
18.246032,0.006354,-0.021435,0.011667
18.256072,0.007396,-0.029982,0.011629
18.266082,0.001029,-0.017121,0.006331
18.276122,0.007420,-0.021438,0.011669
18.296172,0.015926,-0.025713,0.006332
18.296172,0.015926,-0.025713,0.006332
18.306212,0.001015,-0.022465,0.007374
18.316222,-0.001123,-0.025667,0.008421
18.326262,0.004216,-0.022486,0.009519
18.336272,0.006312,-0.034230,0.007333
18.346312,-0.001121,-0.020287,-0.000099
18.376372,-0.011784,-0.025623,0.006255
18.376372,-0.011784,-0.025623,0.006255
18.386413,0.007384,-0.033176,0.009477
18.396422,-0.008590,-0.019160,-0.007592
18.406463,-0.005355,-0.017135,0.013791
18.416472,-0.000084,-0.029897,-0.001210
18.446611,0.002049,-0.028831,-0.002267
18.446611,0.002049,-0.028831,-0.002267
18.456620,-0.005369,-0.020324,0.010571
18.466661,-0.013940,-0.032003,0.001947
18.476671,-0.007539,-0.026659,-0.003352
18.486711,-0.016051,-0.025599,0.004107
18.516801,-0.004336,-0.027762,0.001993
18.516801,-0.004336,-0.027762,0.001993
18.526811,-0.013908,-0.021334,0.004133
18.536851,-0.000091,-0.038491,0.009432
18.546861,-0.009674,-0.030949,0.001963
18.556901,-0.005422,-0.036312,0.004086
18.586961,0.003125,-0.032099,0.010539
18.586961,0.003125,-0.032099,0.010539
18.597001,0.012721,-0.031062,0.010570
18.607011,0.009541,-0.023566,0.008461
18.617051,0.006341,-0.027858,0.014841
18.627061,0.008481,-0.021427,0.008468
18.657151,0.008480,-0.019271,0.004205
18.657151,0.008480,-0.019271,0.004205
18.667161,0.008476,-0.023568,0.009526
18.677202,-0.000019,-0.013944,0.012753
18.687211,0.006349,-0.021420,0.008462
18.697252,0.004227,-0.020365,0.012734
18.727342,0.010618,-0.019298,0.008484
18.727342,0.010618,-0.019298,0.008484
18.737352,0.001040,-0.011771,0.004220
18.747392,0.009543,-0.025727,0.013791
18.757402,0.006355,-0.018206,0.006341
18.767442,0.011682,-0.020374,0.009550
18.797502,0.008506,-0.019352,0.021296
18.797502,0.008506,-0.019352,0.021296
18.807542,0.005286,-0.026812,0.020184
18.817552,0.014880,-0.021463,0.011690
18.827592,-0.001097,-0.023597,0.022318
18.837602,0.001003,-0.028888,0.010548
18.867692,-0.007489,-0.022509,0.022305
18.867692,-0.007489,-0.022509,0.022305
18.877702,-0.005386,-0.026731,0.010541
18.887742,0.002095,-0.018202,0.008465
18.897752,-0.019225,-0.024586,0.017990
18.907792,-0.002158,-0.022531,0.023388
18.937852,-0.018134,-0.035441,0.054261
18.947892,-0.008518,-0.034470,0.068179
18.957933,0.002046,-0.046054,0.026493
18.967943,-0.010705,-0.048290,0.056357
18.977983,0.001052,-0.023660,0.034074
19.008043,-0.020177,0.008452,0.033099
19.008043,-0.020177,0.008452,0.033099
19.018083,-0.002062,0.009482,0.028881
19.028093,-0.023331,0.012633,0.054474
19.038133,-0.018017,0.022359,0.026761
19.048143,-0.007375,0.010526,0.037417
19.078233,-0.008568,-0.024616,0.016951
19.078233,-0.008568,-0.024616,0.016951
19.088243,-0.006408,-0.005324,0.001025
19.098283,0.009576,-0.011829,0.010653
19.108293,-0.012830,-0.017066,0.004157
19.118333,0.005308,-0.010722,0.005305
19.138383,0.005308,-0.011800,0.007436
19.148393,0.007447,-0.009676,0.008521
19.158433,-0.000054,-0.022452,0.005235
19.168474,0.006387,-0.005381,0.004265
19.178483,-0.000044,-0.021404,0.009513
19.188524,0.007424,-0.013912,0.001023
19.208574,0.004198,-0.025659,0.003095
19.218583,-0.004303,-0.019249,0.008443
19.228624,-0.004302,-0.016020,0.003117
19.238633,-0.004307,-0.017083,0.002044
19.248674,-0.002184,-0.022450,0.006297
19.258683,-0.007515,-0.019193,-0.001180
19.288774,-0.012845,-0.019171,-0.002263
19.298784,-0.004297,-0.017113,0.008453
19.308824,-0.018154,-0.011678,-0.002242
19.318834,-0.007515,-0.020271,0.000952
19.328874,-0.007487,-0.013894,0.007391
19.338884,-0.017102,-0.014870,-0.005459
19.348924,-0.008573,-0.023522,0.011615
19.358934,-0.006433,-0.014940,0.002048
19.368974,-0.011749,-0.007422,-0.003272
19.378984,-0.008583,-0.028877,0.014795
19.389024,-0.003239,-0.013863,-0.002211
19.399064,0.009571,-0.016121,0.014905
19.409074,-0.011778,-0.024565,0.008397
19.419114,0.012741,-0.017123,-0.001114
19.429124,-0.010680,-0.019284,0.020175
19.439164,-0.014973,-0.018101,-0.001195
19.449170,-0.000025,-0.016080,0.012742
19.459210,-0.022425,-0.019180,0.006257
19.469220,-0.003255,-0.024582,0.006284
19.489270,-0.017093,-0.015974,0.002014
19.499311,-0.007517,-0.023495,0.005209
19.509320,-0.018170,-0.022398,0.006253
19.519361,-0.014966,-0.018121,0.003078
19.529370,-0.025611,-0.013820,0.004137
19.539411,-0.011768,-0.015981,-0.000108
19.559461,-0.003242,-0.019238,0.005241
19.569470,-0.006452,-0.022421,0.003081
19.579511,-0.002165,-0.012813,0.001002
19.589521,-0.002169,-0.014954,0.002060
19.599561,-0.006457,-0.025635,0.005202
19.609601,0.003163,-0.014982,0.004211
19.639661,0.006363,-0.013924,0.004225
19.649701,-0.013906,-0.019183,0.000939
19.659711,-0.002175,-0.017090,0.002050
19.669751,-0.011755,-0.013865,0.004175
19.679761,-0.016044,-0.021312,0.000923
19.699811,-0.020315,-0.021273,-0.004430
19.709851,-0.010723,-0.027767,0.007317
19.719861,-0.022416,-0.011669,-0.001185
19.729901,-0.019246,-0.022364,-0.000159
19.739911,-0.013911,-0.025631,0.009454
19.749951,-0.011773,-0.014888,-0.005444
19.770002,-0.013889,-0.013853,0.003101
19.780011,-0.005386,-0.022424,0.003084
19.790052,-0.010723,-0.028845,0.009448
19.800061,-0.000054,-0.021374,0.003103
19.810102,-0.002193,-0.027805,0.009476
19.820142,-0.007519,-0.023490,0.004141
19.850202,0.007383,-0.029941,0.003083
19.860242,-0.010708,-0.024583,0.011604
19.870252,-0.014988,-0.027748,0.006237
19.880292,-0.007539,-0.032044,0.006237
19.890302,-0.014970,-0.020262,0.004136
19.910352,-0.006431,-0.016023,0.005247
19.920392,-0.018175,-0.024539,0.007311
19.930402,-0.013916,-0.024538,0.004118
19.940442,-0.009635,-0.020300,0.008423
19.950452,-0.006438,-0.019232,0.006301
19.960492,-0.006448,-0.019202,-0.000109
19.980542,-0.017104,-0.019172,0.000930
19.990552,0.001009,-0.023523,0.005233
20.000592,-0.011764,-0.017069,0.004160
20.010602,-0.006432,-0.017096,0.006311
20.020642,-0.011791,-0.025602,0.001983
20.030652,-0.012839,-0.020269,0.004141
20.050733,-0.009663,-0.029906,0.007309
20.060742,-0.016031,-0.017045,0.002011
20.070783,-0.001114,-0.018156,0.000979
20.080793,-0.020291,-0.017041,0.004136
20.090833,-0.008610,-0.028791,-0.003365
20.100843,0.004222,-0.020350,0.009529
20.120893,0.003132,-0.025656,0.003092
20.130933,-0.017086,-0.015999,0.007355
20.140943,-0.010717,-0.019168,-0.004393
20.150983,-0.008587,-0.026711,0.008396
20.160993,-0.014972,-0.019179,0.000936
20.171033,-0.017109,-0.022386,0.003051
20.191083,-0.020312,-0.025590,0.005164
20.201093,-0.020319,-0.025570,0.000891
20.211133,-0.013922,-0.026673,0.004108
20.221143,-0.018159,-0.015970,0.002011
20.231183,-0.020329,-0.028768,-0.000192
20.241193,-0.007537,-0.033127,0.009436
20.271283,-0.010722,-0.025616,0.004122
20.281324,-0.017110,-0.021308,0.000920
20.291333,-0.009672,-0.032032,0.005163
20.301374,-0.021376,-0.022362,0.000903
20.311383,-0.018162,-0.015960,-0.000126
20.331433,-0.019246,-0.026671,0.007298
20.341474,-0.018189,-0.023415,-0.004434
20.351483,-0.010722,-0.026694,0.006253
20.361524,-0.025642,-0.024494,0.003018
20.371533,-0.013943,-0.034149,0.004073
20.381574,-0.005379,-0.024601,0.011619
20.401624,-0.004345,-0.037429,0.013698
20.411634,-0.020297,-0.018099,0.001995
20.421674,-0.001134,-0.028866,0.007338
20.431684,-0.017113,-0.027761,0.010504
20.441724,-0.007503,-0.017078,0.003103
20.451773,-0.002193,-0.027805,0.009476
20.461813,-0.012831,-0.020295,0.009482
20.471853,-0.003254,-0.023509,0.005221
20.481863,-0.005389,-0.026721,0.008404
20.491903,-0.007501,-0.018161,0.006303
20.501913,-0.013910,-0.023480,0.006260
20.511953,-0.005388,-0.025648,0.007341
20.521963,-0.007508,-0.020292,0.005224
20.542013,-0.007529,-0.027767,0.005189
20.552053,-0.020279,-0.013848,0.006288
20.562063,-0.014975,-0.020247,0.000931
20.572103,-0.013902,-0.018120,0.002012
20.582113,-0.011778,-0.021336,0.003071
20.592154,-0.009664,-0.026672,0.000915
20.612204,-0.010711,-0.019188,-0.000120
20.612204,-0.010711,-0.019188,-0.000120
20.622213,-0.006462,-0.026698,0.004129
20.632254,-0.000070,-0.028864,0.006273
20.642263,-0.012833,-0.011670,-0.007568
20.652304,0.000995,-0.032097,0.011601
20.662313,-0.010725,-0.024528,-0.000146
20.682363,-0.008568,-0.018152,0.005232
20.692404,0.002062,-0.026715,0.002016
20.702444,-0.017098,-0.022422,0.010529
20.712454,-0.003247,-0.017066,-0.002226
20.722494,-0.002205,-0.032076,0.009456
20.732504,-0.016049,-0.026682,0.007307
20.752554,-0.017109,-0.023464,0.005183
20.762594,-0.008612,-0.036327,0.009418
20.772604,-0.011775,-0.024575,0.010533
20.782644,-0.012821,-0.014940,0.006303
20.792654,-0.011802,-0.033108,0.008356
20.802694,-0.009660,-0.030994,0.011577
20.832754,-0.003273,-0.030990,0.006254
20.842794,-0.012844,-0.025639,0.010525
20.852804,-0.008573,-0.019215,0.004158
20.862844,-0.004349,-0.034185,0.005167
20.872854,-0.016033,-0.021347,0.008400
20.892904,-0.010725,-0.027762,0.006248
20.902945,-0.017112,-0.024532,0.005178
20.912985,-0.017130,-0.029862,0.003016
20.922995,-0.010713,-0.023490,0.006269
20.933035,-0.021397,-0.026604,-0.005526
20.943045,-0.011802,-0.034186,0.010488
20.963095,-0.022470,-0.029809,-0.004476
20.973135,-0.008611,-0.038483,0.013681
20.983145,-0.019267,-0.028762,-0.002326
20.993185,-0.007521,-0.025636,0.006267
21.003195,-0.017139,-0.033066,0.003001
21.013235,-0.014999,-0.032020,0.006216
21.043295,-0.008606,-0.033113,0.007297
21.053335,-0.009660,-0.028838,0.007314
21.063345,-0.019235,-0.021322,0.005187
21.073385,-0.003280,-0.035277,0.009438
21.083395,-0.013907,-0.022412,0.006265
21.103445,-0.005391,-0.027794,0.009468
21.113485,-0.009653,-0.026708,0.008393
21.123526,-0.004307,-0.021390,0.009501
21.133535,-0.012829,-0.020300,0.010551
21.143576,-0.007519,-0.023490,0.004141
21.153585,-0.007509,-0.023521,0.010550
21.173635,-0.004333,-0.027773,0.004129
21.183676,-0.014962,-0.021366,0.011608
21.193686,-0.008571,-0.019220,0.005226
21.203726,-0.017124,-0.027726,0.003026
21.213736,-0.013899,-0.018130,0.004149
21.223776,-0.009657,-0.028848,0.009451
21.243826,-0.003280,-0.034199,0.007307
21.253836,-0.013902,-0.022427,0.009469
21.263876,-0.007531,-0.025606,-0.000142
21.273886,0.006315,-0.034240,0.009469
21.283926,-0.014964,-0.015976,0.000951
21.293936,0.005236,-0.038503,0.008378
21.313986,-0.002209,-0.030988,0.005188
21.324026,0.006326,-0.029963,0.008421
21.334036,-0.011794,-0.026670,0.001978
21.344076,-0.002208,-0.032066,0.007320
21.354116,-0.011791,-0.026680,0.004114
21.364126,-0.007532,-0.028835,0.005184
21.394217,-0.003256,-0.026733,0.009478
21.404226,-0.004316,-0.023516,0.007354
21.414267,-0.005398,-0.029925,0.008389
21.424276,-0.005380,-0.025674,0.012682
21.434317,-0.004302,-0.018176,0.007380
21.454384,0.002080,-0.024620,0.010571
21.464393,-0.002174,-0.020324,0.008444
21.474434,-0.003253,-0.025665,0.009484
21.484443,-0.007539,-0.033122,0.008368
21.494484,-0.006448,-0.024587,0.009480
21.504494,-0.014973,-0.022408,0.006262
21.534584,-0.020292,-0.018114,0.005199
21.544594,-0.008606,-0.033113,0.007297
21.554634,-0.014989,-0.027743,0.005168
21.564674,-0.017103,-0.021328,0.005193
21.564674,-0.017103,-0.021328,0.005193
21.584724,-0.013913,-0.023470,0.004123
21.594734,-0.009653,-0.025629,0.006261
21.604774,-0.006453,-0.024572,0.006275
21.604774,-0.006453,-0.024572,0.006275
21.624824,-0.000059,-0.025666,0.007356
21.634834,-0.005390,-0.024565,0.004142
21.644874,-0.013924,-0.027746,0.005171
21.644874,-0.013924,-0.027746,0.005171
21.654884,-0.004317,-0.022438,0.005223
21.684974,-0.012833,-0.019212,0.006283
21.684974,-0.012833,-0.019212,0.006283
21.705025,-0.012861,-0.028818,0.005169
21.705025,-0.012861,-0.028818,0.005169
21.725075,-0.009665,-0.029901,0.006241
21.735084,-0.016054,-0.027745,0.006234
21.735084,-0.016054,-0.027745,0.006234
21.755134,-0.012865,-0.030959,0.006227
21.765175,-0.007521,-0.026714,0.008399
21.765175,-0.007521,-0.026714,0.008399
21.785225,-0.008599,-0.030983,0.008375
21.795265,-0.009648,-0.025645,0.009466
21.805275,-0.005379,-0.022445,0.007356
21.805275,-0.005379,-0.022445,0.007356
21.825325,-0.001129,-0.028881,0.010542
21.835365,-0.012836,-0.020279,0.006278
21.845375,0.005253,-0.034247,0.011603
21.845375,0.005253,-0.034247,0.011603
21.855415,-0.011768,-0.021366,0.009480
21.865425,-0.004327,-0.026715,0.006271
21.895515,-0.010708,-0.022427,0.007342
21.895515,-0.010708,-0.022427,0.007342
21.905525,-0.008568,-0.018152,0.005232
21.915565,-0.005388,-0.025648,0.007341
21.925575,-0.010705,-0.021359,0.007347
21.935615,-0.005365,-0.017105,0.007382
21.965675,-0.006440,-0.019227,0.005232
21.965675,-0.006440,-0.019227,0.005232
21.975715,-0.006425,-0.013888,0.005258
21.985725,0.001027,-0.017116,0.005263
21.995766,-0.005362,-0.016037,0.007387
22.005806,-0.005367,-0.016022,0.004182
22.025856,-0.004289,-0.012832,0.006337
22.025856,-0.004289,-0.012832,0.006337
22.035866,-0.000039,-0.017112,0.005260
22.045906,-0.005360,-0.014964,0.006324
22.055916,-0.006426,-0.013883,0.004189
22.065956,-0.007499,-0.017088,0.005240
22.075966,-0.002186,-0.023518,0.006292
22.096016,-0.008560,-0.013871,0.003115
22.106056,-0.007520,-0.025641,0.007335
22.126106,-0.008583,-0.011726,0.004182
22.126106,-0.012815,-0.011726,0.004182
22.136116,-0.009637,-0.019217,0.005224
22.146156,-0.006460,-0.026703,0.005197
22.166206,-0.014957,-0.015996,0.005224
22.166206,-0.014957,-0.015996,0.005224
22.176216,-0.005387,-0.023497,0.004147
22.186256,-0.010717,-0.025631,0.007327
22.196266,-0.008587,-0.025633,0.006264
22.206306,-0.005381,-0.022440,0.006288
22.226356,-0.010713,-0.023490,0.006269
22.236397,-0.014982,-0.025612,0.006247
22.236397,-0.014982,-0.025612,0.006247
22.246406,-0.010732,-0.030971,0.007301
22.256447,-0.012844,-0.023483,0.006263
22.266456,-0.008583,-0.024570,0.007338
22.276497,-0.012857,-0.028828,0.007306
22.286506,-0.010726,-0.028835,0.007311
22.296547,-0.009652,-0.024556,0.005198
22.326607,-0.009648,-0.025645,0.009466
22.326607,-0.009648,-0.025645,0.009466
22.336647,-0.005391,-0.026716,0.007336
22.346657,-0.007531,-0.030991,0.009446
22.356697,-0.008584,-0.024565,0.006269
22.366707,-0.004311,-0.021380,0.007364
22.386757,-0.002177,-0.021392,0.008438
22.396797,-0.006460,-0.027781,0.007328
22.406807,-0.001110,-0.020323,0.007378
22.416847,-0.004303,-0.019249,0.008443
22.426887,-0.003268,-0.031005,0.009458
22.436897,-0.004319,-0.024584,0.007349
22.456958,-0.005375,-0.020304,0.006298
22.466998,-0.004330,-0.028861,0.008397
22.477008,-0.005391,-0.027794,0.009468
22.487048,-0.007502,-0.019234,0.007366
22.497058,-0.003251,-0.023519,0.007357
22.507099,-0.007528,-0.028845,0.007320
22.527149,-0.000053,-0.023530,0.007366
22.537158,-0.005384,-0.023507,0.006283
22.547199,-0.001135,-0.029939,0.008401
22.557208,-0.004334,-0.029924,0.007324
22.567249,-0.003241,-0.019243,0.006309
22.577258,-0.005374,-0.019231,0.005235
22.607349,-0.005371,-0.017085,0.003109
22.617359,-0.006445,-0.022441,0.007354
22.627399,-0.007536,-0.030976,0.006242
22.637409,-0.007518,-0.024568,0.006272
22.647449,-0.009643,-0.022431,0.007345
22.657489,-0.007518,-0.024568,0.006272
22.667499,-0.006457,-0.027791,0.009465
22.677539,-0.007526,-0.027777,0.007325
22.687549,-0.006450,-0.023504,0.006280
22.697589,-0.005391,-0.026716,0.007336
22.707599,-0.002195,-0.027800,0.008408
22.717639,-0.003268,-0.029927,0.007327
22.737689,-0.003246,-0.022457,0.008431
22.737689,-0.003246,-0.022457,0.008431
22.747699,-0.009661,-0.029911,0.008378
22.757739,-0.002189,-0.025664,0.008418
22.767749,-0.009628,-0.017091,0.007370
22.777789,-0.010695,-0.017083,0.006299
22.787799,-0.006467,-0.030990,0.008381
22.807849,-0.007486,-0.012821,0.006328
22.807849,-0.007486,-0.012821,0.006328
22.817890,-0.010704,-0.020286,0.006284
22.827899,-0.007514,-0.023506,0.007346
22.837940,-0.008572,-0.020293,0.006290
22.847949,-0.003229,-0.016049,0.008461
22.857990,-0.003243,-0.021389,0.008436
22.878040,-0.007508,-0.021370,0.007356
22.878040,-0.007508,-0.021370,0.007356
22.888080,-0.004309,-0.021385,0.008433
22.898090,-0.004308,-0.020312,0.007369
22.908130,-0.003265,-0.029937,0.009463
22.918140,-0.004324,-0.025647,0.006276
22.928180,-0.005375,-0.020304,0.006298
22.948230,-0.005400,-0.030998,0.009452
22.958240,-0.008594,-0.028842,0.007317
22.968280,-0.005376,-0.021377,0.007362
22.978290,-0.004330,-0.028861,0.008397
22.988330,-0.008596,-0.028837,0.006249
22.998340,-0.004325,-0.026720,0.007339
23.018390,-0.006451,-0.024577,0.007343
23.018390,-0.006451,-0.024577,0.007343
23.028430,-0.007531,-0.030991,0.009446
23.038440,-0.005390,-0.025643,0.006273
23.048480,-0.007502,-0.019234,0.007366
23.058490,-0.007512,-0.023511,0.008414
23.068530,-0.006454,-0.025645,0.007338
23.088580,-0.001112,-0.021396,0.008441
23.088580,-0.001112,-0.021396,0.008441
23.098621,-0.007505,-0.021380,0.009492
23.108631,-0.005381,-0.023518,0.008420
23.118671,-0.004318,-0.025667,0.010549
23.128681,-0.004300,-0.018181,0.008448
23.138721,-0.005367,-0.020329,0.011639
23.158771,-0.007505,-0.021380,0.009492
23.158771,-0.007505,-0.021380,0.009492
23.168781,-0.003235,-0.020336,0.011645
23.178821,-0.007509,-0.023521,0.010550
23.188831,-0.004318,-0.025667,0.010549
23.198871,-0.009652,-0.027786,0.010524
23.208881,-0.005360,-0.016042,0.008455
23.238971,-0.010717,-0.026709,0.009458
23.238971,-0.010717,-0.026709,0.009458
23.248981,-0.010705,-0.021359,0.007347
23.259021,-0.008571,-0.020298,0.007358
23.269031,-0.012838,-0.022425,0.008404
23.279071,-0.011786,-0.026696,0.007319
23.309162,-0.006447,-0.022436,0.006285
23.309162,-0.006447,-0.022436,0.006285
23.319171,-0.008594,-0.028842,0.007317
23.329212,-0.001123,-0.025667,0.008421
23.339221,-0.001117,-0.023531,0.008431
23.349262,-0.004314,-0.022448,0.007359
23.369312,-0.001120,-0.024599,0.008426
23.369312,-0.001120,-0.024599,0.008426
23.379321,-0.003232,-0.016039,0.006324
23.389362,-0.003258,-0.027806,0.010542
23.399371,0.001000,-0.029956,0.010543
23.409412,-0.003239,-0.019248,0.007377
23.419422,-0.001101,-0.017119,0.007393
23.439472,-0.004331,-0.029934,0.009460
23.449533,-0.004312,-0.022453,0.008428
23.459543,-0.004300,-0.017103,0.006316
23.469583,-0.007521,-0.026714,0.008399
23.479593,-0.004319,-0.024584,0.007349
23.489633,-0.002170,-0.018183,0.007385
23.509683,-0.003242,-0.021394,0.009504
23.509683,-0.003242,-0.021394,0.009504
23.519723,-0.000055,-0.024603,0.008429
23.529733,0.002098,-0.018212,0.010602
23.539773,0.004232,-0.017151,0.010613
23.549783,-0.000051,-0.024613,0.010566
23.559823,0.004197,-0.029966,0.010552
23.579873,0.002095,-0.018202,0.008465
23.579873,0.002095,-0.018202,0.008465
23.589883,-0.004331,-0.029934,0.009460
23.599923,-0.000065,-0.028880,0.009477
23.609933,-0.003229,-0.014971,0.006330
23.619974,-0.006436,-0.019237,0.007369
23.629983,-0.009666,-0.030974,0.007304
23.650033,-0.008568,-0.018152,0.005232
23.650033,-0.008568,-0.018152,0.005232
23.660074,-0.010703,-0.019213,0.005221
23.670083,-0.009657,-0.026692,0.005188
23.680124,-0.007539,-0.032044,0.006237
23.690133,-0.008578,-0.022429,0.006279
23.700174,-0.007510,-0.020287,0.004156
23.740274,-0.005390,-0.025643,0.006273
23.740274,-0.005390,-0.025643,0.006273
23.750314,-0.001124,-0.023511,0.004159
23.760324,-0.006459,-0.025630,0.004134
23.770364,-0.003264,-0.026708,0.004137
23.780374,0.004197,-0.027810,0.006289
23.790414,-0.005390,-0.024565,0.004142
23.800424,-0.004324,-0.023491,0.002013
23.810464,-0.002198,-0.026712,0.004140
23.820474,-0.004326,-0.024564,0.003076
23.830514,-0.009664,-0.027750,0.003047
23.840524,-0.009649,-0.021332,0.000941
23.860574,-0.013921,-0.024522,0.000914
23.860574,-0.013921,-0.024522,0.000914
23.870614,-0.009671,-0.028803,-0.000163
23.880624,-0.010721,-0.022387,-0.001204
23.890664,-0.010717,-0.020246,-0.002262
23.900674,-0.009670,-0.027730,-0.001226
23.910715,-0.007542,-0.027727,-0.003357
23.930765,-0.004330,-0.022397,-0.003323
23.930765,-0.004330,-0.022397,-0.003323
23.940805,-0.005408,-0.027739,-0.002283
23.950815,-0.008606,-0.025572,-0.006554
23.960855,-0.000066,-0.022411,-0.003311
23.970865,-0.002207,-0.025608,-0.003332
23.980905,-0.003271,-0.024532,-0.004398
24.000955,0.002058,-0.023471,-0.006515
24.010965,-0.001138,-0.023466,-0.005455
24.021005,-0.004359,-0.031999,-0.005504
24.031015,-0.005417,-0.026635,-0.009755
24.041055,-0.000077,-0.024532,-0.006526
24.051065,-0.003274,-0.024522,-0.006534
24.061105,-0.006500,-0.034117,-0.007657
24.071115,-0.003247,-0.012759,-0.009683
24.081155,-0.002216,-0.027734,-0.005478
24.091165,-0.000106,-0.036289,-0.004445
24.101205,0.002063,-0.018101,-0.012898
24.111215,-0.000066,-0.019182,-0.008637
24.121255,0.004172,-0.029885,-0.006539
24.131265,0.000966,-0.030928,-0.009758
24.141305,0.005261,-0.020267,-0.008627
24.151346,0.004182,-0.025609,-0.007587
24.161355,0.006302,-0.030965,-0.005470
24.171396,-0.001141,-0.020226,-0.012917
24.181405,0.003122,-0.023469,-0.007580
24.191446,0.002032,-0.030931,-0.009755
24.211496,-0.000069,-0.018094,-0.012904
24.211496,-0.000069,-0.018094,-0.012904
24.221506,-0.000092,-0.027716,-0.010813
24.231546,-0.002227,-0.028777,-0.010824
24.241556,-0.005389,-0.013795,-0.015035
24.251596,-0.004345,-0.022347,-0.014004
24.261606,0.002045,-0.023430,-0.015060
24.271646,0.002043,-0.022347,-0.018260
24.281656,0.004181,-0.021297,-0.016112
24.291696,0.006311,-0.023454,-0.012912
24.301706,-0.001150,-0.021274,-0.017195
24.311746,0.012705,-0.020241,-0.019288
24.321756,0.002041,-0.025571,-0.014002
24.331796,0.000973,-0.023407,-0.019336
24.341806,0.011633,-0.022373,-0.019302
24.351846,-0.002222,-0.022328,-0.019340
24.361856,0.002025,-0.027677,-0.020421
24.371896,0.007354,-0.027694,-0.020407
24.381936,-0.003292,-0.024466,-0.018284
24.391946,-0.003301,-0.027670,-0.018300
24.401986,0.004154,-0.028752,-0.020421
24.422037,-0.001177,-0.029807,-0.019372
24.432046,-0.003304,-0.026582,-0.022567
24.442087,-0.000111,-0.030889,-0.017238
24.452110,0.002011,-0.034095,-0.018315
24.462151,0.000964,-0.025533,-0.021482
24.472160,-0.003298,-0.024446,-0.022557
24.482201,0.005218,-0.029828,-0.019355
24.492210,0.003079,-0.031952,-0.020439
24.502251,-0.004371,-0.027651,-0.021507
24.512260,0.000955,-0.028736,-0.021498
24.522301,0.003089,-0.026597,-0.023618
24.532311,0.002039,-0.021259,-0.022527
24.542351,0.000952,-0.028726,-0.023634
24.552361,0.003077,-0.030869,-0.023638
24.562401,0.000953,-0.026575,-0.026828
24.572411,0.005236,-0.018035,-0.028913
24.582451,0.004145,-0.027648,-0.027893
24.592491,-0.006523,-0.030813,-0.029006
24.602501,0.008414,-0.023370,-0.032134
24.612541,0.000935,-0.030827,-0.031121
24.632591,0.003063,-0.030823,-0.033252
24.642601,-0.000139,-0.031876,-0.034334
24.652641,-0.003315,-0.022239,-0.037502
24.662651,0.004132,-0.024374,-0.042832
24.672691,-0.001215,-0.033993,-0.037552
24.682701,0.004129,-0.026520,-0.040706
24.692741,0.005192,-0.027591,-0.040708
24.702751,-0.002273,-0.029708,-0.039671
24.712791,0.008398,-0.022242,-0.044947
24.722801,0.008381,-0.030805,-0.040715
24.732842,-0.000149,-0.030768,-0.042874
24.742851,0.006259,-0.024366,-0.046031
24.752892,0.008385,-0.028664,-0.041773
24.762901,-0.002279,-0.028610,-0.046075
24.772942,0.011583,-0.024368,-0.049221
24.782951,0.001955,-0.040381,-0.043982
24.792992,0.001976,-0.030754,-0.047141
24.803032,0.012647,-0.024366,-0.050286
24.813042,-0.004430,-0.033927,-0.049311
24.823082,0.001977,-0.027525,-0.052467
24.853142,0.004120,-0.022182,-0.054572
24.863182,0.004082,-0.036065,-0.054638
24.873192,-0.000179,-0.036057,-0.053582
24.883232,0.010496,-0.028606,-0.055653
24.893242,0.007269,-0.039274,-0.055713
24.903282,0.006209,-0.037135,-0.055706
24.913292,0.011543,-0.032860,-0.059943
24.923332,0.009396,-0.040344,-0.056780
24.933342,0.009403,-0.037135,-0.057833
24.943382,0.011559,-0.025370,-0.063113
24.953392,0.008320,-0.043539,-0.057866
24.963432,0.005145,-0.032830,-0.062097
24.973442,0.016884,-0.026450,-0.064171
24.983482,0.002995,-0.040303,-0.061071
24.993492,0.012620,-0.025358,-0.066314
25.003532,0.013668,-0.031769,-0.066342
25.013573,0.007248,-0.043516,-0.062142
25.023583,0.012622,-0.024285,-0.067377
25.033623,0.009404,-0.032828,-0.065290
25.053673,0.016880,-0.025362,-0.068439
25.063683,0.013648,-0.039245,-0.066377
25.073723,0.010464,-0.033890,-0.067429
25.083733,0.019013,-0.024296,-0.069496
25.093773,0.009386,-0.037080,-0.069583
25.103783,0.007267,-0.031728,-0.070632
25.113823,0.014720,-0.033883,-0.071690
25.123833,0.005115,-0.039197,-0.070673
25.133873,0.011552,-0.022115,-0.073779
25.143883,0.000858,-0.035969,-0.072806
25.153923,0.006169,-0.044550,-0.068559
25.163933,0.009409,-0.026380,-0.073806
25.173973,0.010456,-0.033864,-0.072770
25.194023,0.020057,-0.030692,-0.072728
25.204033,0.009368,-0.042409,-0.071745
25.214073,0.012588,-0.032798,-0.073827
25.224083,0.017921,-0.029597,-0.077002
25.234123,0.020021,-0.043507,-0.072789
25.244164,0.010452,-0.033854,-0.074906
25.264214,0.008321,-0.033847,-0.074912
25.274223,0.016876,-0.021040,-0.079101
25.284264,0.014695,-0.039187,-0.079193
25.294273,0.010424,-0.043460,-0.076020
25.304314,0.014747,-0.018887,-0.081233
25.314323,0.008313,-0.033822,-0.080253
25.334374,0.014714,-0.028478,-0.085551
25.344414,0.012561,-0.038097,-0.082398
25.354424,0.005110,-0.031640,-0.087729
25.364464,0.016837,-0.030610,-0.087692
25.374474,0.008281,-0.042340,-0.085634
25.384514,0.012566,-0.032727,-0.088782
25.404564,0.010409,-0.041259,-0.089896
25.414574,0.013637,-0.028439,-0.093031
25.414574,0.013637,-0.028439,-0.093031
25.434624,0.008254,-0.047639,-0.094205
25.444664,0.020017,-0.031643,-0.097302
25.444664,0.020017,-0.031643,-0.097302
25.454723,0.018926,-0.041256,-0.096282
25.474773,0.027477,-0.030589,-0.099413
25.484783,0.009318,-0.047638,-0.095271
25.494823,0.009342,-0.034787,-0.102687
25.504833,0.012555,-0.027307,-0.105848
25.504833,0.012555,-0.027307,-0.105848
25.524883,0.014672,-0.033731,-0.103736
25.534924,0.011463,-0.035837,-0.108027
25.544933,0.001856,-0.041145,-0.108079
25.554974,0.017862,-0.032638,-0.111199
25.564983,0.017830,-0.045464,-0.109124
25.575024,0.010369,-0.046517,-0.107013
25.585033,0.017858,-0.032628,-0.113336
25.595074,0.010387,-0.032569,-0.120833
25.605083,0.012497,-0.042202,-0.117669
25.605083,0.012497,-0.042202,-0.117669
25.615124,0.028468,-0.049745,-0.114455
25.635174,0.015724,-0.029382,-0.120804
25.645184,0.022096,-0.037946,-0.120827
25.645184,0.022096,-0.037946,-0.120827
25.665264,0.030629,-0.032609,-0.126119
25.675274,0.012471,-0.046428,-0.127303
25.675274,0.012471,-0.046428,-0.127303
25.685314,0.013561,-0.036815,-0.128322
25.695324,0.027451,-0.022967,-0.130355
25.705364,0.001815,-0.042092,-0.133721
25.725414,0.017807,-0.038930,-0.135798
25.725414,0.017807,-0.038930,-0.135798
25.745464,0.024209,-0.034663,-0.138965
25.765514,0.024198,-0.036784,-0.142180
25.765514,0.024198,-0.036784,-0.142180
25.775524,0.019901,-0.047434,-0.145446
25.785564,0.017790,-0.039952,-0.145417
25.795574,0.022051,-0.037805,-0.150736
25.805614,0.016683,-0.053821,-0.147622
25.825664,0.024152,-0.048486,-0.151849
25.845715,0.029505,-0.037809,-0.154988
25.845715,0.029505,-0.037809,-0.154988
25.855724,0.017736,-0.054862,-0.154033
25.875805,0.026280,-0.046326,-0.158242
25.875805,0.026280,-0.046326,-0.158242
25.885815,0.014542,-0.049477,-0.161494
25.895855,0.029472,-0.045244,-0.163569
25.925915,0.027333,-0.046289,-0.166785
25.925915,0.027333,-0.046289,-0.166785
25.935955,0.017723,-0.051588,-0.168973
25.945965,0.034787,-0.046293,-0.171037
25.956005,0.028372,-0.055904,-0.166827
25.966015,0.033704,-0.053776,-0.168939
25.976055,0.030526,-0.045212,-0.171044
25.986065,0.030503,-0.053755,-0.171084
25.996105,0.037958,-0.055915,-0.171074
26.006115,0.034777,-0.047341,-0.175315
26.026165,0.040086,-0.053756,-0.177467
26.026165,0.040086,-0.053756,-0.177467
26.036205,0.034739,-0.059068,-0.179643
26.066265,0.028338,-0.060105,-0.181802
26.066265,0.028338,-0.060105,-0.181802
26.076305,0.044366,-0.044128,-0.183819
26.086346,0.033666,-0.057966,-0.186050
26.096355,0.034743,-0.054771,-0.184964
26.106396,0.040093,-0.044084,-0.190240
26.136456,0.032601,-0.053656,-0.193510
26.136456,0.032601,-0.053656,-0.193510
26.146496,0.040065,-0.052612,-0.193485
26.156506,0.044317,-0.055825,-0.194556
26.166546,0.029398,-0.051474,-0.200986
26.176556,0.049644,-0.053681,-0.199873
26.206646,0.040027,-0.060032,-0.205270
26.206646,0.040027,-0.060032,-0.205270
26.216656,0.032572,-0.057872,-0.205281
26.226696,0.042177,-0.051480,-0.208429
26.236706,0.037887,-0.061078,-0.208486
26.246746,0.040036,-0.053599,-0.210581
26.276806,0.031496,-0.054604,-0.218087
26.276806,0.031496,-0.054604,-0.218087
26.286846,0.035738,-0.059937,-0.222373
26.296886,0.026125,-0.068459,-0.220304
26.306896,0.042136,-0.055661,-0.227676
26.316936,0.031453,-0.064165,-0.228814
26.346996,0.035704,-0.066294,-0.233085
26.346996,0.035704,-0.066294,-0.233085
26.357037,0.044236,-0.063108,-0.235183
26.367046,0.033572,-0.064131,-0.237354
26.377087,0.037828,-0.066276,-0.238421
26.387096,0.046366,-0.062032,-0.238377
26.417187,0.038883,-0.067322,-0.243764
26.417187,0.038883,-0.067322,-0.243764
26.427196,0.047409,-0.067349,-0.243740
26.437237,0.047412,-0.065204,-0.245866
26.447247,0.034629,-0.060875,-0.249086
26.457308,0.049552,-0.059851,-0.250108
26.467318,0.043131,-0.070519,-0.248040
26.477358,0.047392,-0.069450,-0.251228
26.487368,0.050605,-0.061970,-0.254388
26.497408,0.044210,-0.059793,-0.258668
26.507418,0.050590,-0.066231,-0.256545
26.517458,0.056975,-0.071607,-0.253348
26.527498,0.047380,-0.070487,-0.257642
26.547548,0.044182,-0.068321,-0.261913
26.547548,0.044182,-0.068321,-0.261913
26.557558,0.055914,-0.064077,-0.263997
26.567598,0.051627,-0.071529,-0.266181
26.577608,0.052682,-0.074731,-0.267261
26.587648,0.059094,-0.065110,-0.273607
26.597658,0.048415,-0.071473,-0.275803
26.627748,0.051603,-0.072531,-0.280072
26.627748,0.051603,-0.072531,-0.280072
26.637758,0.068650,-0.074722,-0.280036
26.647799,0.066500,-0.082196,-0.279009
26.657808,0.059044,-0.077880,-0.283282
26.667849,0.076111,-0.074746,-0.280015
26.687899,0.078227,-0.077937,-0.284297
26.687899,0.078227,-0.077937,-0.284297
26.697908,0.081426,-0.079030,-0.281089
26.707949,0.082478,-0.084373,-0.281111
26.717958,0.084616,-0.080094,-0.284290
26.727999,0.081426,-0.077952,-0.283220
26.738039,0.085670,-0.084369,-0.284307
26.758089,0.075043,-0.074738,-0.281086
26.768099,0.072902,-0.075779,-0.285370
26.778139,0.073954,-0.082200,-0.283261
26.788149,0.068622,-0.076787,-0.295000
26.798189,0.063303,-0.078956,-0.284343
26.808199,0.071829,-0.077906,-0.286451
26.828249,0.059035,-0.076771,-0.291822
26.828249,0.059035,-0.076771,-0.291822
26.838289,0.072894,-0.073597,-0.294974
26.848299,0.063284,-0.081052,-0.292899
26.858339,0.069692,-0.074650,-0.296056
26.868349,0.072890,-0.070353,-0.303504
26.878389,0.059028,-0.076751,-0.296095
26.898439,0.075024,-0.073599,-0.296036
26.908449,0.077164,-0.068246,-0.300278
26.918489,0.082495,-0.059654,-0.314109
26.928499,0.075010,-0.075710,-0.301387
26.938539,0.084593,-0.071403,-0.315227
26.948580,0.088874,-0.070395,-0.305596
26.968630,0.079269,-0.066016,-0.321625
26.968630,0.079269,-0.066016,-0.321625
26.978640,0.071797,-0.076727,-0.309946
26.988680,0.070722,-0.067001,-0.333404
26.998690,0.083532,-0.069259,-0.316288
27.008730,0.067521,-0.077750,-0.316372
27.018740,0.068589,-0.065911,-0.336609
27.058840,0.074962,-0.080943,-0.323844
27.068880,0.072820,-0.073364,-0.344111
27.078890,0.078160,-0.077724,-0.329161
27.088930,0.081347,-0.078777,-0.334499
27.098940,0.080291,-0.074497,-0.335550
27.108980,0.082420,-0.077728,-0.331286
27.118990,0.091998,-0.079870,-0.336611
27.129030,0.082424,-0.074509,-0.334475
27.139040,0.094128,-0.079872,-0.337673
27.149080,0.095199,-0.080968,-0.332334
27.159121,0.092017,-0.072389,-0.337644
27.179171,0.094146,-0.073464,-0.337643
27.189180,0.096260,-0.079879,-0.337667
27.199221,0.098389,-0.080953,-0.337666
27.209230,0.092007,-0.074510,-0.340858
27.219271,0.102634,-0.087375,-0.337685
27.229280,0.093063,-0.076639,-0.343002
27.249331,0.101582,-0.076642,-0.348319
27.259371,0.111181,-0.078849,-0.339758
27.269381,0.098372,-0.085210,-0.340891
27.279421,0.110118,-0.072392,-0.349344
27.289431,0.097319,-0.078784,-0.344068
27.299471,0.094111,-0.078738,-0.351555
27.319521,0.098368,-0.081966,-0.349422
27.319521,0.098368,-0.081966,-0.349422
27.329531,0.104759,-0.078742,-0.357934
27.339571,0.098348,-0.085134,-0.356914
27.349581,0.085569,-0.077587,-0.363323
27.359621,0.104742,-0.081921,-0.363291
27.369661,0.084479,-0.088278,-0.360172
27.399721,0.073823,-0.082863,-0.368722
27.399721,0.073823,-0.082863,-0.368722
27.409761,0.081287,-0.078590,-0.374022
27.419771,0.072737,-0.089257,-0.370891
27.429811,0.077008,-0.086067,-0.370864
27.439821,0.075966,-0.076442,-0.372958
27.459904,0.075950,-0.082855,-0.371920
27.469945,0.073814,-0.084989,-0.370868
27.479954,0.067389,-0.093491,-0.375199
27.489995,0.072725,-0.092451,-0.373043
27.500004,0.070601,-0.088162,-0.375165
27.510045,0.069531,-0.090299,-0.374110
27.530095,0.073795,-0.091391,-0.371967
27.540104,0.079127,-0.090341,-0.371947
27.550145,0.074872,-0.087123,-0.371943
27.560155,0.083386,-0.092495,-0.370877
27.570195,0.078064,-0.090347,-0.369813
27.580235,0.084474,-0.085028,-0.369771
27.590245,0.081272,-0.087159,-0.368721
27.600285,0.086622,-0.080779,-0.366540
27.610295,0.082367,-0.077561,-0.366536
27.620335,0.087675,-0.088283,-0.361231
27.630345,0.087691,-0.080792,-0.364401
27.640385,0.083434,-0.075414,-0.369728
27.650395,0.083424,-0.085075,-0.359092
27.660435,0.086643,-0.075459,-0.362242
27.670445,0.091967,-0.076540,-0.363300
27.680485,0.084497,-0.080792,-0.362273
27.690495,0.098364,-0.073336,-0.367540
27.700535,0.091973,-0.073326,-0.365422
27.710545,0.084499,-0.078646,-0.364399
27.720585,0.097297,-0.072250,-0.370743
27.730595,0.085552,-0.078609,-0.372942
27.740635,0.082357,-0.079682,-0.369751
27.750645,0.089803,-0.078582,-0.381476
27.760686,0.079144,-0.083933,-0.371917
27.770695,0.080225,-0.074290,-0.379345
27.780736,0.075939,-0.082819,-0.379398
27.790745,0.082345,-0.078568,-0.379360
27.800786,0.085538,-0.078564,-0.382556
27.810826,0.083390,-0.083891,-0.383655
27.820836,0.091937,-0.078599,-0.379333
27.830876,0.084481,-0.075356,-0.382543
27.840886,0.090885,-0.073251,-0.380379
27.850926,0.089803,-0.079660,-0.379344
27.860936,0.088725,-0.074231,-0.397481
27.870976,0.091932,-0.081813,-0.377212
27.880986,0.086620,-0.073232,-0.381459
27.891026,0.082395,-0.059335,-0.381405
27.901036,0.078083,-0.076403,-0.382566
27.911076,0.089801,-0.077499,-0.384675
27.921086,0.089834,-0.071142,-0.373963
27.931126,0.062104,-0.069914,-0.388989
27.941136,0.089831,-0.072210,-0.373968
27.951176,0.071667,-0.086009,-0.379425
27.961186,0.083416,-0.077509,-0.378284
27.971226,0.079139,-0.076377,-0.388972
27.981236,0.081288,-0.074283,-0.381479
27.991276,0.078094,-0.075361,-0.377220
28.001286,0.085530,-0.078538,-0.387897
28.021367,0.085547,-0.068897,-0.394260
28.021367,0.085547,-0.068897,-0.394260
28.031376,0.088784,-0.062570,-0.379266
28.041417,0.081276,-0.082862,-0.374042
28.051427,0.079168,-0.067848,-0.385727
28.061467,0.088759,-0.073265,-0.376112
28.071477,0.087678,-0.076445,-0.380403
28.111577,0.082377,-0.066821,-0.379304
28.121617,0.088774,-0.061462,-0.387807
28.131627,0.082421,-0.048646,-0.383491
28.141667,0.078130,-0.059317,-0.382485
28.151677,0.075998,-0.057154,-0.386754
28.161717,0.087742,-0.049716,-0.386686
28.171727,0.070677,-0.051776,-0.391016
28.181767,0.085606,-0.050772,-0.387765
28.191777,0.081363,-0.041127,-0.392004
28.201817,0.080269,-0.051808,-0.390989
28.211827,0.099427,-0.061481,-0.390982
28.231907,0.094132,-0.049722,-0.389873
28.231907,0.094132,-0.049722,-0.389873
28.241917,0.094089,-0.064668,-0.391012
28.251958,0.098363,-0.061483,-0.389917
28.261967,0.087701,-0.065745,-0.384625
28.272008,0.085580,-0.057154,-0.393136
28.282017,0.080258,-0.057157,-0.388878
28.292058,0.078126,-0.058228,-0.386753
28.302067,0.077030,-0.067821,-0.390006
28.312108,0.080250,-0.062517,-0.384631
28.322117,0.073874,-0.055016,-0.385681
28.332158,0.071731,-0.056052,-0.391033
28.342167,0.072780,-0.065697,-0.384666
28.352208,0.061067,-0.061382,-0.385747
28.372258,0.061064,-0.062450,-0.385752
28.382268,0.057904,-0.048556,-0.385695
28.392308,0.064255,-0.065674,-0.383622
28.402318,0.058916,-0.069934,-0.382588
28.412358,0.070691,-0.050744,-0.383533
28.422368,0.058956,-0.054977,-0.383586
28.442448,0.063190,-0.068905,-0.377231
28.452458,0.069620,-0.055032,-0.379284
28.462501,0.067467,-0.064652,-0.376130
28.472511,0.068546,-0.059311,-0.377170
28.482551,0.071715,-0.074313,-0.368687
28.492561,0.071698,-0.075335,-0.378306
28.512611,0.068520,-0.076463,-0.363365
28.522651,0.077048,-0.072189,-0.369730
28.532661,0.069591,-0.073253,-0.365483
28.542701,0.071717,-0.076474,-0.363356
28.552711,0.073861,-0.074365,-0.359067
28.562752,0.069592,-0.076487,-0.359089
28.582802,0.072765,-0.087192,-0.355926
28.592811,0.063206,-0.074341,-0.356960
28.602852,0.068527,-0.079718,-0.352698
28.612861,0.066377,-0.088269,-0.349540
28.622902,0.074917,-0.081879,-0.351622
28.632911,0.059999,-0.081841,-0.349527
28.652992,0.062138,-0.082946,-0.343117
28.663002,0.075990,-0.081903,-0.347347
28.673042,0.080250,-0.084063,-0.345209
28.683052,0.068550,-0.075481,-0.345201
28.693092,0.075993,-0.080835,-0.347342
28.703102,0.079193,-0.081934,-0.343065
28.713142,0.071740,-0.078701,-0.344139
28.723152,0.077057,-0.082990,-0.344144
28.733192,0.077043,-0.082944,-0.353758
28.743202,0.071768,-0.071250,-0.338762
28.753242,0.068544,-0.078695,-0.343079
28.763252,0.062142,-0.081883,-0.342044
28.773292,0.078154,-0.071241,-0.345154
28.793342,0.067481,-0.076546,-0.345209
28.803352,0.073868,-0.081927,-0.340943
28.813392,0.068558,-0.075507,-0.339860
28.823402,0.070675,-0.080853,-0.339879
28.833442,0.074953,-0.078762,-0.333448
28.843452,0.063205,-0.081877,-0.344177
28.863533,0.063221,-0.080849,-0.335627
28.873543,0.074925,-0.088368,-0.334562
28.883583,0.069616,-0.083026,-0.331347
28.893593,0.060024,-0.078688,-0.338830
28.903633,0.072805,-0.088396,-0.327090
28.913643,0.065350,-0.084080,-0.331363
28.933693,0.072804,-0.089469,-0.326027
28.943733,0.070698,-0.077695,-0.330250
28.953743,0.064274,-0.087276,-0.332450
28.963783,0.067475,-0.090530,-0.323910
28.973793,0.067479,-0.083004,-0.334557
28.983833,0.065355,-0.085173,-0.326027
29.003883,0.064285,-0.083004,-0.332429
29.013893,0.064305,-0.079835,-0.324937
29.023933,0.061112,-0.076606,-0.328135
29.033943,0.061094,-0.083014,-0.328165
29.043983,0.049401,-0.070145,-0.331341
29.053993,0.057907,-0.078727,-0.329222
29.074074,0.052606,-0.069103,-0.328123
29.084083,0.066444,-0.077712,-0.323853
29.094124,0.061117,-0.076621,-0.324930
29.104133,0.059016,-0.067018,-0.321686
29.114174,0.068577,-0.077724,-0.322779
29.124183,0.066469,-0.072402,-0.317418
29.144233,0.076040,-0.080987,-0.315296
29.144233,0.076040,-0.080987,-0.315296
29.154274,0.068607,-0.073508,-0.311008
29.164284,0.072846,-0.079909,-0.315300
29.174324,0.074994,-0.075659,-0.312069
29.184334,0.073917,-0.079927,-0.312092
29.194374,0.083490,-0.088517,-0.308902
29.224434,0.080315,-0.079958,-0.309938
29.234474,0.076063,-0.074595,-0.312061
29.244484,0.082427,-0.087446,-0.308900
29.254524,0.078194,-0.074602,-0.312055
29.264534,0.078190,-0.076742,-0.310997
29.274574,0.067523,-0.079912,-0.311042
29.284614,0.074998,-0.073518,-0.313127
29.294624,0.062212,-0.073487,-0.311026
29.304664,0.069664,-0.077793,-0.308889
29.314674,0.075021,-0.068204,-0.307761
29.324714,0.062231,-0.068162,-0.307796
29.334724,0.077143,-0.073566,-0.304576
29.354774,0.069706,-0.064998,-0.304556
29.364815,0.072889,-0.073582,-0.298178
29.374824,0.061191,-0.062855,-0.300296
29.384865,0.061180,-0.068204,-0.298185
29.394874,0.059065,-0.062863,-0.297097
29.404915,0.054799,-0.064995,-0.294983
29.414924,0.047329,-0.068175,-0.295019
29.414924,0.047329,-0.068175,-0.295019
29.434974,0.043080,-0.066050,-0.289679
29.445015,0.044171,-0.056437,-0.290699
29.455042,0.042025,-0.062848,-0.288599
29.455042,0.042025,-0.062848,-0.288599
29.475093,0.043102,-0.062887,-0.281118
29.495173,0.039918,-0.058610,-0.280039
29.495173,0.039918,-0.058610,-0.280039
29.515223,0.048444,-0.060794,-0.275753
29.525233,0.051641,-0.062955,-0.272550
29.535273,0.050569,-0.066165,-0.270431
29.535273,0.050569,-0.066165,-0.270431
29.545283,0.050578,-0.064040,-0.268285
29.575373,0.058025,-0.072638,-0.261896
29.575373,0.058025,-0.072638,-0.261896
29.595423,0.056983,-0.064091,-0.261858
29.605433,0.056983,-0.064091,-0.261858
29.605433,0.055913,-0.067306,-0.258672
29.615473,0.046329,-0.062993,-0.260814
29.645533,0.043151,-0.057659,-0.257593
29.645533,0.043151,-0.057659,-0.257593
29.655573,0.050595,-0.067324,-0.251209
29.665583,0.042077,-0.063015,-0.253348
29.675624,0.048502,-0.053434,-0.251149
29.685633,0.047423,-0.060932,-0.245846
29.715724,0.053824,-0.063124,-0.238361
29.715724,0.053824,-0.063124,-0.238361
29.725764,0.052779,-0.053494,-0.241523
29.735774,0.062395,-0.047138,-0.237194
29.745814,0.060251,-0.051397,-0.238288
29.755824,0.057045,-0.057825,-0.231918
29.775874,0.062398,-0.051455,-0.227600
29.785914,0.054946,-0.048227,-0.227606
29.795924,0.064532,-0.052545,-0.224395
29.805964,0.053880,-0.051453,-0.222283
29.815974,0.058137,-0.053602,-0.222281
29.826014,0.050687,-0.052535,-0.216956
29.846064,0.050696,-0.050410,-0.214809
29.846064,0.050696,-0.050410,-0.214809
29.856074,0.047502,-0.050409,-0.212682
29.866114,0.049630,-0.052557,-0.211618
29.876124,0.051785,-0.046177,-0.207309
29.886164,0.049659,-0.041878,-0.211567
29.896174,0.053911,-0.049398,-0.205182
29.916255,0.054982,-0.050494,-0.199843
29.916255,0.054982,-0.050494,-0.199843
29.926264,0.049663,-0.046200,-0.200905
29.936305,0.056056,-0.049445,-0.196630
29.946314,0.048573,-0.057969,-0.195623
29.956355,0.046475,-0.045142,-0.196636
29.966364,0.050727,-0.052662,-0.190251
29.986415,0.043280,-0.048371,-0.189183
29.986415,0.043280,-0.048371,-0.189183
29.996455,0.049659,-0.054804,-0.188128
30.006465,0.040077,-0.051575,-0.187071
30.016505,0.037948,-0.050500,-0.187071
30.026515,0.040072,-0.055866,-0.182818
30.036555,0.039016,-0.052664,-0.181738
30.066615,0.030500,-0.049438,-0.180678
30.066615,0.030500,-0.049438,-0.180678
30.076655,0.033695,-0.052672,-0.176411
30.086665,0.033691,-0.053735,-0.177485
30.096705,0.034783,-0.045205,-0.175305
30.106715,0.028385,-0.045174,-0.177459
30.136805,0.032665,-0.042010,-0.172091
30.136805,0.032665,-0.042010,-0.172091
30.146845,0.036920,-0.046305,-0.169963
30.156855,0.034790,-0.047382,-0.166769
30.166895,0.035865,-0.043103,-0.168882
30.176905,0.036919,-0.049535,-0.164637
30.206996,0.037999,-0.047427,-0.159283
30.206996,0.037999,-0.047427,-0.159283
30.217005,0.034823,-0.038869,-0.160320
30.227046,0.039081,-0.042096,-0.158187
30.237055,0.039083,-0.043179,-0.154987
30.247096,0.030576,-0.033520,-0.159238
30.277156,0.031640,-0.037826,-0.152846
30.277156,0.031640,-0.037826,-0.152846
30.287196,0.032710,-0.036766,-0.151770
30.297206,0.030577,-0.037832,-0.150713
30.307246,0.024194,-0.033540,-0.150710
30.317256,0.031643,-0.038914,-0.148578
30.327296,0.026306,-0.043178,-0.146477
30.337336,0.023132,-0.034625,-0.146445
30.347346,0.029517,-0.040000,-0.143248
30.357386,0.025258,-0.037845,-0.144318
30.367396,0.022065,-0.037850,-0.141122
30.377436,0.029514,-0.042146,-0.141122
30.387446,0.022060,-0.041064,-0.139001
30.407496,0.027389,-0.043237,-0.134724
30.417536,0.022056,-0.045361,-0.133680
30.427546,0.022083,-0.033599,-0.136829
30.437586,0.024197,-0.043242,-0.131528
30.447596,0.020993,-0.045368,-0.131547
30.457673,0.021014,-0.038970,-0.129380
30.487733,0.013563,-0.036820,-0.127254
30.487733,0.013563,-0.036820,-0.127254
30.497774,0.015675,-0.044308,-0.126215
30.507783,0.013562,-0.038971,-0.124060
30.517824,0.017821,-0.042204,-0.120859
30.527833,0.012498,-0.040051,-0.120863
30.557924,0.015704,-0.037936,-0.118708
30.557924,0.015704,-0.037936,-0.118708
30.567964,0.013571,-0.037924,-0.119782
30.577974,0.015697,-0.042223,-0.115523
30.588014,0.013575,-0.036861,-0.118709
30.598024,0.011435,-0.041136,-0.116598
30.618074,0.014635,-0.042229,-0.113390
30.618074,0.014635,-0.042229,-0.113390
30.628114,0.016774,-0.040105,-0.112306
30.638124,0.011450,-0.036874,-0.114442
30.648164,0.014641,-0.041171,-0.111248
30.658174,0.015709,-0.039029,-0.113372
30.668214,0.012518,-0.037961,-0.111239
30.698274,0.013603,-0.031562,-0.110138
30.698274,0.013603,-0.031562,-0.110138
30.708314,0.017840,-0.043343,-0.105909
30.718324,0.015732,-0.033715,-0.108006
30.728364,0.017855,-0.038003,-0.105884
30.738374,0.013608,-0.032655,-0.104802
30.758424,0.016791,-0.040161,-0.100556
30.758424,0.016791,-0.040161,-0.100556
30.768464,0.017868,-0.033737,-0.104795
30.778505,0.032797,-0.033810,-0.099413
30.788515,0.020024,-0.028434,-0.098355
30.798555,0.029620,-0.026325,-0.099387
30.808565,0.027463,-0.039163,-0.093044
30.828615,0.028556,-0.030633,-0.090864
30.828615,0.028556,-0.030633,-0.090864
30.838655,0.027493,-0.028484,-0.092993
30.848665,0.026436,-0.025277,-0.092981
30.858705,0.021087,-0.034891,-0.088768
30.868715,0.020038,-0.027402,-0.090872
30.878755,0.022175,-0.027424,-0.087662
30.908815,0.017899,-0.033833,-0.084499
30.908815,0.017899,-0.033833,-0.084499
30.918855,0.017907,-0.030629,-0.084484
30.928865,0.010460,-0.024182,-0.087679
30.938905,0.013640,-0.032756,-0.083438
30.948915,0.012567,-0.034883,-0.084519
30.979005,0.008327,-0.027404,-0.082359
30.979005,0.008327,-0.027404,-0.082359
30.989046,0.013653,-0.029567,-0.080218
30.999055,0.011512,-0.032759,-0.081307
31.009096,0.017920,-0.029591,-0.078070
31.019105,0.009385,-0.032768,-0.078109
31.049196,0.004063,-0.031697,-0.074914
31.049196,0.004063,-0.031697,-0.074914
31.059205,0.020053,-0.030681,-0.074865
31.069246,0.010448,-0.035995,-0.073848
31.079255,0.011555,-0.022126,-0.071643
31.089296,0.007282,-0.025310,-0.072738
31.099306,0.014729,-0.031757,-0.069543
31.109346,0.012617,-0.025348,-0.068451
31.119356,0.007295,-0.022122,-0.069518
31.129396,0.017946,-0.026443,-0.066305
31.139406,0.012635,-0.020018,-0.066289
31.149446,0.012639,-0.017878,-0.067347
31.159456,0.011555,-0.022126,-0.071643
31.189546,0.019025,-0.022180,-0.065213
31.189546,0.019025,-0.022180,-0.065213
31.199586,0.001989,-0.016790,-0.064167
31.209596,0.015836,-0.021117,-0.062013
31.219636,0.008369,-0.023229,-0.062043
31.229646,0.019054,-0.014730,-0.059837
31.259736,0.009460,-0.015772,-0.058800
31.259736,0.009460,-0.015772,-0.058800
31.269746,0.012656,-0.015777,-0.059860
31.279787,0.010500,-0.026465,-0.056711
31.289796,0.013725,-0.015791,-0.057720
31.299837,0.014777,-0.022212,-0.055611
31.329896,0.005185,-0.023259,-0.053506
31.329896,0.005185,-0.023259,-0.053506
31.339937,0.014769,-0.028650,-0.049233
31.349946,0.012657,-0.019011,-0.053466
31.359987,0.007321,-0.023281,-0.050296
31.369996,0.007317,-0.025422,-0.049238
31.410127,0.000919,-0.027547,-0.047129
31.420137,0.008384,-0.026508,-0.046035
31.430177,0.011603,-0.020121,-0.043860
31.440187,0.007321,-0.028666,-0.040707
31.450227,0.012669,-0.021203,-0.041726
31.460247,0.000958,-0.014742,-0.044932
31.470287,0.011592,-0.024398,-0.042812
31.480297,-0.000138,-0.027569,-0.041791
31.490337,0.014801,-0.023366,-0.037457
31.500347,-0.002265,-0.027577,-0.038592
31.510387,0.004153,-0.020132,-0.036403
31.530437,0.005204,-0.025476,-0.036425
31.530437,0.005204,-0.025476,-0.036425
31.540447,0.006262,-0.029761,-0.034306
31.550487,0.005196,-0.029757,-0.034309
31.560497,0.003072,-0.027620,-0.033237
31.570537,0.007326,-0.030837,-0.033240
31.580547,0.000928,-0.031884,-0.033263
31.590588,0.006271,-0.027635,-0.032160
31.600597,0.007341,-0.026576,-0.031084
31.610638,0.006271,-0.029791,-0.027897
31.620678,0.007335,-0.028712,-0.031094
31.630688,0.007359,-0.021246,-0.028922
31.640728,0.007340,-0.028727,-0.027889
31.650738,0.004155,-0.021216,-0.033203
31.660778,0.008415,-0.027682,-0.023608
31.670788,-0.005431,-0.021205,-0.028957
31.680828,0.013773,-0.014864,-0.027806
31.690838,-0.005446,-0.028695,-0.025788
31.700878,0.007365,-0.020188,-0.026780
31.710888,0.005215,-0.028740,-0.023622
31.720928,-0.005417,-0.018016,-0.025737
31.750988,-0.000095,-0.022320,-0.022538
31.750988,-0.000095,-0.022320,-0.022538
31.761028,-0.003287,-0.019096,-0.024668
31.771038,-0.005424,-0.022303,-0.022553
31.781078,-0.002209,-0.015906,-0.022514
31.791088,-0.001153,-0.020186,-0.021463
31.811138,0.011632,-0.024525,-0.016107
31.821178,-0.007542,-0.018029,-0.021470
31.831219,0.005239,-0.024509,-0.015056
31.841228,-0.005433,-0.029814,-0.015111
31.851269,0.006312,-0.022381,-0.013975
31.861278,-0.005414,-0.022333,-0.016144
31.881328,-0.009685,-0.026606,-0.012971
31.891369,0.004162,-0.030933,-0.010817
31.901379,-0.005402,-0.019140,-0.013992
31.911419,-0.000067,-0.018099,-0.011836
31.921429,-0.007570,-0.035177,-0.008733
31.931469,-0.003265,-0.018089,-0.011845
31.951519,-0.000082,-0.023439,-0.011861
31.961529,-0.002210,-0.023442,-0.009731
31.971569,-0.004337,-0.022372,-0.008664
31.981579,0.003126,-0.021328,-0.008638
31.991619,-0.002199,-0.019170,-0.009711
32.001629,0.005265,-0.019205,-0.007554
32.011669,-0.002225,-0.029860,-0.007625
32.021679,0.007413,-0.012799,-0.008586
32.031719,-0.001115,-0.013844,-0.007546
32.041759,0.002045,-0.028816,-0.005472
32.051769,-0.000076,-0.023459,-0.007589
32.061809,0.001014,-0.015997,-0.005414
32.071819,-0.007533,-0.022367,-0.007604
32.091869,-0.005402,-0.025603,-0.002272
32.091869,-0.005402,-0.025603,-0.002272
32.101910,-0.005391,-0.019175,-0.006515
32.111919,-0.005410,-0.028812,-0.001219
32.121960,-0.007499,-0.011703,-0.004349
32.131969,-0.003274,-0.027756,-0.000140
32.142010,-0.008608,-0.029874,-0.000165
32.162060,-0.011800,-0.027728,-0.000164
32.172069,-0.000053,-0.019223,-0.000091
32.182110,-0.011763,-0.013840,-0.001166
32.192120,-0.002198,-0.026712,0.004140
32.202160,-0.004333,-0.027773,0.004129
32.212170,0.003166,-0.013914,0.004216
32.222210,-0.008557,-0.012803,0.003120
32.232220,-0.001125,-0.024584,0.005222
32.242260,-0.010712,-0.021339,0.003074
32.252300,-0.006429,-0.014950,0.004184
32.262310,-0.017102,-0.019177,0.001998
32.272350,-0.006441,-0.020300,0.006295
32.282360,-0.018162,-0.018116,0.004137
32.302410,-0.012853,-0.026687,0.006248
32.312450,-0.016022,-0.014919,0.004158
32.322460,-0.008587,-0.025633,0.006264
32.332500,-0.017095,-0.017047,0.003077
32.342510,-0.006414,-0.010689,0.006341
32.352550,-0.023513,-0.025569,0.003019
32.372600,-0.011774,-0.021346,0.005208
32.382610,-0.005353,-0.011755,0.005271
32.392651,-0.011781,-0.025633,0.008392
32.402660,-0.009652,-0.022400,0.000936
32.412701,-0.007523,-0.025631,0.005199
32.422710,-0.010732,-0.028815,0.003039
32.432751,-0.008579,-0.021351,0.004148
32.442760,-0.011796,-0.029894,0.006235
32.452801,-0.006457,-0.024557,0.003071
32.462866,-0.016058,-0.027729,0.003029
32.472876,-0.004331,-0.027778,0.005198
32.482916,-0.013923,-0.028824,0.007303
32.492926,-0.009662,-0.028833,0.006246
32.523016,-0.005404,-0.030983,0.006248
32.533026,-0.003262,-0.027791,0.007337
32.543066,-0.006432,-0.018174,0.008442
32.553076,-0.007503,-0.020307,0.008429
32.563116,0.002068,-0.028892,0.010551
32.573126,-0.002186,-0.025674,0.010555
32.583166,0.005302,-0.015014,0.009558
32.593176,-0.007503,-0.022463,0.012692
32.603216,-0.004282,-0.013930,0.012741
32.613226,-0.004295,-0.020353,0.015915
32.623266,-0.007489,-0.016045,0.010586
32.633276,-0.009612,-0.014986,0.013789
32.653357,-0.009636,-0.024607,0.015880
32.663366,-0.013895,-0.022452,0.014810
32.673407,-0.015999,-0.010683,0.011656
32.683416,-0.016033,-0.026732,0.017989
32.693457,-0.019229,-0.025649,0.016917
32.703467,-0.004289,-0.019295,0.018056
32.713507,-0.014956,-0.022464,0.018012
32.723517,-0.013891,-0.023540,0.019078
32.733557,-0.006428,-0.022497,0.019104
32.743567,-0.008555,-0.020349,0.018040
32.753607,-0.006423,-0.022512,0.022308
32.763617,-0.007498,-0.024634,0.020159
32.773657,-0.001104,-0.025728,0.021240
32.793707,-0.010669,-0.013934,0.018064
32.803717,-0.020281,-0.022457,0.020134
32.813757,-0.009615,-0.019288,0.020178
32.823767,-0.012821,-0.022481,0.020154
32.833807,-0.016011,-0.020340,0.021224
32.843817,-0.009587,-0.009681,0.021292
32.863897,-0.013876,-0.019279,0.021235
32.873907,-0.014939,-0.018207,0.021237
32.883947,-0.009602,-0.017172,0.024461
32.893957,-0.017075,-0.020341,0.022289
32.903998,-0.015994,-0.015005,0.022317
32.914007,-0.013882,-0.022493,0.023356
32.934057,-0.014943,-0.022505,0.026558
32.944098,-0.014931,-0.017155,0.024446
32.954107,-0.013896,-0.031067,0.029725
32.964148,-0.013879,-0.021425,0.023361
32.974157,-0.017076,-0.022493,0.025484
32.984198,-0.010695,-0.030009,0.029738
33.004248,-0.017088,-0.029993,0.030789
33.014258,-0.012823,-0.026783,0.026543
33.024298,-0.015997,-0.019307,0.028706
33.034308,-0.018143,-0.024640,0.028675
