time_tick,gyr_X_value,gyr_Y_value,gyr_Z_value
0.007486,-0.321278,-0.171967,-0.000633
0.007486,-0.321278,-0.171967,-0.000633
0.017496,-0.376915,-0.241122,-0.018206
0.027536,-0.099207,-0.427986,0.011588
0.037546,0.121786,-0.690430,0.028049
0.047586,0.049657,-0.959371,0.038327
0.057596,-0.164196,-1.213934,0.040805
0.067636,-0.240443,-1.430538,0.052388
0.077677,-0.050015,-1.579782,0.090664
0.087686,2.301884,-0.471939,-0.015098
0.097727,-0.187864,-0.435696,-0.104061
0.117777,-1.401151,0.567688,-0.071689
0.117777,-1.401151,0.567688,-0.071689
0.127786,-0.703615,0.723254,-0.022024
0.137828,0.206997,0.483194,-0.016370
0.147836,0.207960,-0.360732,0.033051
0.157877,0.533907,-0.478616,0.122056
0.167886,0.364513,-0.396412,0.018360
0.177927,-0.469972,-0.376574,0.007602
0.197977,-0.337621,0.095141,-0.014370
0.197977,-0.337621,0.095141,-0.014370
0.207988,-0.233345,0.028560,-0.007987
0.218027,0.072370,-0.042993,0.008542
0.228037,0.170161,-0.139430,0.009425
0.238077,0.146781,-0.115870,0.011608
0.248087,0.008482,-0.019276,0.005273
0.258127,-0.139481,0.049568,0.001985
0.268137,-0.128824,0.051690,-0.002248
0.278178,-0.021339,-0.009552,0.002032
0.288187,0.069078,-0.075000,0.004109
0.298227,0.102107,-0.082613,0.010574
0.308237,0.041435,-0.049270,0.002018
0.318277,-0.054336,0.005501,0.003080
0.328287,-0.103305,0.029175,-0.001216
0.338327,-0.056486,0.002335,-0.003350
0.348368,0.037183,-0.046062,0.004158
0.358377,0.074439,-0.066499,0.009505
0.368418,0.039312,-0.047137,0.004159
0.378427,-0.040515,-0.006286,0.001995
0.388468,-0.068177,0.011964,0.000936
0.398477,-0.032002,-0.009502,-0.001202
0.408518,0.024417,-0.037477,0.004163
0.418528,0.035053,-0.046060,0.005220
0.428568,0.006310,-0.033147,0.004133
0.448618,-0.023479,-0.012749,0.002011
0.448618,-0.023479,-0.012749,0.002011
0.458627,-0.008573,-0.019215,0.004158
0.468668,-0.006466,-0.027761,0.003055
0.478678,-0.000073,-0.027776,0.002005
0.488719,0.007389,-0.027806,0.003094
0.498728,0.000991,-0.027775,0.000940
0.508768,-0.012838,-0.019196,0.003078
0.518778,-0.029885,-0.015927,0.000910
0.528818,-0.008587,-0.024555,0.004133
0.538828,0.018043,-0.029981,0.004181
0.548868,0.012709,-0.031027,0.003093
0.558878,-0.014971,-0.019184,0.002004
0.568918,-0.029874,-0.012728,0.001994
0.578928,-0.009649,-0.022411,0.003072
0.588977,0.010569,-0.034223,0.003072
0.598987,0.012717,-0.028896,0.004171
0.609027,-0.016050,-0.023448,0.000913
0.619037,-0.019219,-0.013831,0.002018
0.629077,-0.003256,-0.022426,0.002021
0.639117,0.005245,-0.033143,0.004131
0.649127,0.001002,-0.025654,0.004154
0.659167,-0.021363,-0.018096,0.001992
0.669177,-0.012838,-0.019196,0.003078
0.679218,0.006322,-0.027797,0.002022
0.689227,0.007383,-0.029941,0.003083
0.699268,-0.017110,-0.021308,0.000920
0.709277,-0.024554,-0.015949,0.001993
0.719318,-0.007523,-0.024553,0.003068
0.729327,0.007383,-0.029941,0.003083
0.739368,0.003132,-0.026734,0.005223
0.749377,-0.021361,-0.018101,0.003060
0.759418,-0.018167,-0.018101,0.000932
0.769427,0.005253,-0.028861,0.002014
0.779468,0.006313,-0.032079,0.004139
0.789478,-0.003250,-0.021368,0.004163
0.799518,-0.024557,-0.017017,0.001988
0.809528,-0.009645,-0.020270,0.002014
0.819568,0.012708,-0.031022,0.002025
0.829578,0.008449,-0.029945,0.003086
0.839618,-0.016036,-0.019181,0.002001
0.849628,-0.022425,-0.017024,0.001994
0.859668,-0.001130,-0.024569,0.002017
0.869678,0.012705,-0.032089,0.002020
0.879718,0.003127,-0.026719,0.002019
0.889728,-0.025632,-0.019140,-0.000161
0.899768,-0.016026,-0.015982,0.003085
0.909808,0.006325,-0.026729,0.002027
0.919818,0.012708,-0.032100,0.004156
0.929858,-0.005397,-0.026696,0.003063
0.939868,-0.025620,-0.014868,-0.000141
0.949908,-0.006454,-0.023489,0.003076
0.959918,0.009512,-0.031016,0.003084
0.969958,0.006320,-0.028870,0.003086
0.979968,-0.019231,-0.018103,0.001998
0.990009,-0.020295,-0.018104,0.003063
1.000018,-0.004332,-0.026700,0.003066
1.010059,-0.000085,-0.030970,-0.000147
1.020068,-0.000066,-0.025645,0.003083
1.030109,-0.022424,-0.015951,0.000931
1.040118,-0.010699,-0.015994,0.002031
1.050159,0.007393,-0.025665,0.002035
1.060168,0.005256,-0.027794,0.002019
1.070209,-0.007519,-0.022412,0.002010
1.080218,-0.025624,-0.017009,0.000917
1.090259,-0.009643,-0.019197,0.000951
1.100269,-0.001152,-0.032039,0.000913
1.110309,0.006316,-0.029933,0.002012
1.120319,-0.009640,-0.019207,0.003087
1.130359,-0.013901,-0.017047,0.000949
1.150409,0.007386,-0.028873,0.003088
1.150409,0.007386,-0.028873,0.003088
1.160419,0.011663,-0.024621,0.004189
1.170459,-0.018174,-0.021310,0.001985
1.180499,-0.016034,-0.018113,0.002006
1.190509,-0.002198,-0.026712,0.004140
1.200549,0.003121,-0.028855,0.002009
1.210559,-0.009665,-0.027745,0.001978
1.220599,-0.011773,-0.019195,0.002013
1.230609,-0.009642,-0.019202,0.002019
1.240649,-0.000065,-0.026723,0.005214
1.250659,-0.007526,-0.024543,0.000931
1.260699,-0.011775,-0.020268,0.003076
1.270709,-0.009658,-0.023458,-0.001206
1.290759,0.006338,-0.022462,0.003116
1.290759,0.006338,-0.022462,0.003116
1.300800,-0.006453,-0.022416,0.002013
1.310809,-0.017110,-0.021308,0.000920
1.320850,-0.003256,-0.022426,0.002021
1.330859,-0.000074,-0.028849,0.003068
1.340900,-0.004324,-0.023491,0.002013
1.350909,-0.016039,-0.020249,0.001996
1.360950,-0.014981,-0.022383,0.000921
1.370959,-0.000064,-0.024572,0.002020
1.381000,0.003116,-0.030990,0.001998
1.391010,-0.005384,-0.021351,0.002021
1.401050,-0.019233,-0.018098,0.000929
1.411060,-0.003253,-0.021358,0.002026
1.421100,0.007383,-0.028863,0.000952
1.431110,0.003127,-0.026719,0.002019
1.441150,-0.017110,-0.021308,0.000920
1.451190,-0.020303,-0.019157,-0.000147
1.461200,0.000994,-0.026707,0.000945
1.471240,0.008442,-0.032076,0.002008
1.481250,-0.001121,-0.022443,0.004164
1.501300,-0.011782,-0.022399,0.001998
1.501300,-0.011782,-0.022399,0.001998
1.511340,0.012714,-0.028886,0.002035
1.521350,0.007383,-0.029941,0.003083
1.531390,-0.008576,-0.020283,0.004153
1.541400,-0.021358,-0.017033,0.003065
1.551440,-0.006454,-0.023489,0.003076
1.561450,0.008449,-0.029945,0.003086
1.571490,0.004193,-0.027800,0.004153
1.581500,-0.020303,-0.020235,0.001985
1.591541,-0.021354,-0.014892,0.002007
1.601550,0.005263,-0.025663,0.003098
1.611591,0.009509,-0.032084,0.003079
1.621600,-0.006456,-0.023484,0.002007
1.631641,-0.024557,-0.017017,0.001988
1.641650,-0.012842,-0.020259,0.002005
1.651691,0.009525,-0.025672,0.002041
1.661700,0.009514,-0.031021,0.004152
1.671741,-0.011779,-0.021331,0.002003
1.681750,-0.021355,-0.014887,0.000939
1.691791,-0.007518,-0.021339,0.000946
1.701801,0.006313,-0.031001,0.002007
1.711841,-0.000070,-0.026708,0.002010
1.721851,-0.019231,-0.018103,0.001998
1.731891,-0.020294,-0.017031,0.002000
1.741931,0.003130,-0.025651,0.002024
1.751941,0.007371,-0.033135,0.000932
1.761981,-0.005392,-0.024560,0.003074
1.771991,-0.023491,-0.017021,0.001991
1.782031,-0.010708,-0.019198,0.002016
1.792041,0.008452,-0.027799,0.000960
1.802081,0.005261,-0.027809,0.005224
1.812091,-0.013909,-0.020251,0.000934
1.822131,-0.019228,-0.017035,0.002003
1.832141,-0.001127,-0.023501,0.002022
1.842181,0.006317,-0.028860,0.000949
1.852191,0.003129,-0.026724,0.003087
1.862231,-0.019231,-0.018103,0.001998
1.872241,-0.016040,-0.019171,-0.000135
1.882281,0.006325,-0.026729,0.002027
1.892291,0.003123,-0.027782,0.000945
1.902332,-0.005383,-0.021356,0.003089
1.912341,-0.018164,-0.017033,0.000937
1.922382,-0.009643,-0.019197,0.000951
1.932391,0.007386,-0.027795,0.000957
1.942432,0.003124,-0.027787,0.002014
1.952441,-0.012842,-0.020259,0.002005
1.962482,-0.021360,-0.015950,-0.000134
1.972491,0.003130,-0.025651,0.002024
1.992541,-0.002197,-0.025639,0.003077
1.992541,-0.002197,-0.025639,0.003077
2.002582,-0.017102,-0.019177,0.001998
2.012622,-0.017113,-0.022376,0.000915
2.022632,0.002070,-0.023511,0.002031
2.032672,0.006316,-0.029933,0.002012
2.042682,-0.010716,-0.022402,0.002001
2.052722,-0.022425,-0.017024,0.001994
2.062732,-0.010718,-0.023475,0.003064
2.072772,0.005259,-0.026726,0.002025
2.082782,0.003121,-0.028855,0.002009
2.092822,-0.011782,-0.022399,0.001998
2.102832,-0.017098,-0.018115,0.003072
2.112872,-0.004319,-0.021355,0.002023
2.132922,0.002069,-0.024584,0.003094
2.132922,0.002069,-0.024584,0.003094
2.142932,-0.017098,-0.018115,0.003072
2.152972,-0.017104,-0.019172,0.000930
2.162982,0.006325,-0.026729,0.002027
2.173022,0.004192,-0.027795,0.003085
2.183032,-0.006453,-0.023494,0.004144
2.203082,-0.008582,-0.021341,0.002012
2.203082,-0.008582,-0.021341,0.002012
2.213123,0.008456,-0.026736,0.002033
2.223132,0.000997,-0.026717,0.003081
2.233173,-0.012839,-0.020269,0.004141
2.243182,-0.020286,-0.014900,0.003078
2.253223,-0.005387,-0.022419,0.002015
2.273273,-0.000068,-0.026713,0.003078
2.273273,-0.000068,-0.026713,0.003078
2.283313,-0.016035,-0.019186,0.003070
2.293323,-0.020296,-0.019177,0.004126
2.303363,-0.000067,-0.025640,0.002015
2.313373,0.013775,-0.031030,0.003096
2.323413,-0.002197,-0.025639,0.003077
2.343463,-0.021360,-0.017028,0.001997
2.343463,-0.021360,-0.017028,0.001997
2.353473,0.007393,-0.025665,0.002035
2.363513,0.012706,-0.032095,0.003088
2.373523,-0.009650,-0.022405,0.002004
2.383563,-0.023482,-0.014895,0.004137
2.393573,-0.010709,-0.020271,0.003079
2.413623,0.007383,-0.029941,0.003083
2.413623,0.007383,-0.029941,0.003083
2.423663,-0.018159,-0.017048,0.004142
2.433673,-0.024554,-0.015949,0.001993
2.443713,0.003144,-0.021384,0.003112
2.453723,0.011639,-0.033164,0.004148
2.463763,-0.002194,-0.024571,0.003082
2.483813,-0.017096,-0.017042,0.002009
2.493823,0.012714,-0.029964,0.004166
2.503864,0.009517,-0.029953,0.004157
2.513873,-0.019228,-0.017035,0.002003
2.523914,-0.023482,-0.013817,0.002006
2.533923,0.003144,-0.021384,0.003112
2.553973,-0.010716,-0.023480,0.004132
2.564014,-0.024547,-0.013819,0.003071
2.574054,-0.006447,-0.021358,0.004154
2.584064,0.010587,-0.028894,0.005234
2.594120,-0.006457,-0.025635,0.005202
2.604130,-0.021352,-0.014897,0.003075
2.624180,0.011657,-0.027835,0.006310
2.634220,-0.008583,-0.023492,0.005206
2.644230,-0.023479,-0.013827,0.004143
2.654270,-0.007514,-0.021349,0.003083
2.664280,0.011657,-0.026757,0.004178
2.674320,-0.008586,-0.024560,0.005201
2.684330,-0.019221,-0.014904,0.003081
2.694370,-0.002185,-0.022445,0.005229
2.704380,0.001005,-0.025664,0.006291
2.714420,-0.022422,-0.017034,0.004130
2.724430,-0.012827,-0.014920,0.002030
2.734470,0.003131,-0.026729,0.004155
2.744480,-0.000068,-0.027791,0.005209
2.764530,-0.010697,-0.015999,0.003099
2.774570,0.009519,-0.028885,0.004163
2.784580,-0.012849,-0.023468,0.003058
2.794620,-0.019210,-0.010627,0.002033
2.804630,0.002078,-0.021381,0.003109
2.814671,0.010579,-0.031025,0.004155
2.834721,-0.019220,-0.012753,-0.000113
2.844761,0.010588,-0.027821,0.004171
2.854771,-0.006467,-0.028834,0.004119
2.864811,-0.017071,-0.008503,0.003117
2.874821,-0.000046,-0.019243,0.004182
2.884861,0.004195,-0.027805,0.005221
2.904911,-0.011755,-0.013865,0.004175
2.914921,0.006332,-0.025676,0.005237
2.924961,-0.002164,-0.016047,0.007396
2.934971,-0.011753,-0.012797,0.004180
2.945011,-0.003245,-0.020306,0.005236
2.955021,-0.000040,-0.018185,0.006323
2.965061,-0.006429,-0.014950,0.004184
2.975071,-0.007509,-0.019214,0.003093
2.985111,-0.007492,-0.013879,0.004186
2.995121,0.002084,-0.020323,0.005251
3.005161,-0.004318,-0.022433,0.004155
3.015171,-0.012812,-0.010658,0.004187
3.025211,-0.007483,-0.011753,0.006333
3.045261,-0.014966,-0.019200,0.005209
3.055271,-0.002165,-0.014969,0.005264
3.065311,-0.001124,-0.024589,0.006290
3.075321,-0.011760,-0.014928,0.003102
3.085361,-0.003219,-0.010694,0.005282
3.095371,-0.002188,-0.023513,0.005224
3.105411,-0.008564,-0.016011,0.004173
3.115452,-0.005360,-0.014964,0.006324
3.125462,-0.013912,-0.022397,0.003060
3.135502,-0.010688,-0.012796,0.003115
3.145512,-0.001093,-0.013915,0.007409
3.155552,-0.008590,-0.025623,0.004128
3.165562,-0.011753,-0.012797,0.004180
3.185612,-0.006457,-0.025635,0.005202
3.195652,-0.011754,-0.013870,0.005243
3.205662,-0.010689,-0.014947,0.006309
3.215702,-0.008577,-0.021356,0.005216
3.225712,-0.009628,-0.014935,0.003107
3.235752,-0.005381,-0.022440,0.006288
3.255802,-0.006431,-0.016023,0.005247
3.265812,-0.002191,-0.025659,0.007350
3.275852,-0.006442,-0.020295,0.005227
3.285862,-0.008565,-0.017084,0.005237
3.295902,-0.004324,-0.025647,0.006276
3.305912,-0.005372,-0.019236,0.006303
3.315952,-0.006441,-0.021378,0.008427
3.325962,-0.012840,-0.021342,0.005205
3.325962,-0.012840,-0.021342,0.005205
3.346012,-0.001116,-0.022458,0.007368
3.356052,-0.007517,-0.023495,0.005209
3.356052,-0.007517,-0.023495,0.005209
3.376102,-0.003245,-0.021384,0.007367
3.386112,-0.010713,-0.022412,0.004137
3.386112,-0.010713,-0.022412,0.004137
3.396152,-0.011757,-0.014938,0.005238
3.406193,-0.000061,-0.025661,0.006288
3.426243,-0.012821,-0.014940,0.006303
3.436253,-0.010710,-0.022422,0.006274
3.436253,-0.010710,-0.022422,0.006274
3.446293,-0.006444,-0.021368,0.006290
3.476353,-0.014959,-0.015991,0.004156
3.476353,-0.014959,-0.015991,0.004156
3.486393,-0.002185,-0.022445,0.005229
3.496403,-0.005385,-0.023502,0.005215
3.506443,-0.014953,-0.014933,0.006297
3.516453,-0.005372,-0.019236,0.006303
3.536503,-0.006437,-0.018159,0.005237
3.536503,-0.006437,-0.018159,0.005237
3.546543,-0.001106,-0.018182,0.006320
3.556553,-0.006448,-0.022431,0.005217
3.576603,0.001018,-0.021397,0.007379
3.576603,0.001018,-0.021397,0.007379
3.586643,-0.006445,-0.021363,0.005222
3.606711,0.002078,-0.023537,0.007372
3.616721,-0.007513,-0.021355,0.004151
3.626761,-0.006429,-0.014950,0.004184
3.636771,0.001014,-0.022460,0.006306
3.646811,-0.008580,-0.020268,0.000949
3.656821,-0.009624,-0.013872,0.004181
3.686911,-0.008566,-0.016006,0.003105
3.686911,-0.008566,-0.016006,0.003105
3.696952,-0.005389,-0.023492,0.003079
3.706961,-0.013909,-0.021329,0.003065
3.717002,-0.008560,-0.013871,0.003115
3.727012,0.000997,-0.026717,0.003081
3.757102,0.005265,-0.025668,0.004166
3.757102,0.005265,-0.025668,0.004166
3.767112,-0.009661,-0.026682,0.003052
3.777152,-0.012813,-0.009580,0.002056
3.787162,-0.000061,-0.024583,0.004156
3.797202,-0.009654,-0.022395,-0.000133
3.827262,-0.012835,-0.017050,0.000952
3.827262,-0.012835,-0.017050,0.000952
3.837302,-0.004298,-0.013879,0.002059
3.847312,-0.003262,-0.023484,-0.000120
3.857352,-0.017103,-0.018099,-0.000133
3.867362,-0.005365,-0.013871,0.000988
3.897452,-0.005363,-0.012803,0.000993
3.897452,-0.005363,-0.012803,0.000993
3.907462,-0.013916,-0.021308,-0.001207
3.917502,-0.017091,-0.011672,-0.004375
3.927512,0.008480,-0.018193,0.002074
3.937552,-0.009669,-0.026657,-0.002289
3.967643,-0.017104,-0.017016,-0.003332
3.967643,-0.017104,-0.017016,-0.003332
3.977652,-0.005370,-0.013856,-0.002217
3.987693,0.008461,-0.024595,0.000975
3.997702,-0.010708,-0.015964,-0.004378
4.007743,-0.002162,-0.011745,0.001007
4.037803,0.010611,-0.017121,-0.000052
4.037803,0.010611,-0.017121,-0.000052
4.047843,-0.018191,-0.024488,-0.003371
4.057853,-0.010683,-0.007426,-0.003269
4.067893,0.004206,-0.020299,-0.001153
4.077903,-0.010714,-0.017022,-0.006519
4.097953,-0.009678,-0.028783,-0.004436
4.097953,-0.009678,-0.028783,-0.004436
4.107993,-0.009633,-0.010613,-0.007554
4.118003,0.004224,-0.013892,-0.001122
4.128043,-0.022453,-0.021245,-0.008708
4.138053,-0.006434,-0.010628,-0.006477
4.148093,0.001006,-0.021357,-0.001166
4.178153,-0.016074,-0.027679,-0.007653
4.178153,-0.016074,-0.027679,-0.007653
4.188193,-0.004310,-0.011688,-0.009681
4.198203,0.004204,-0.020294,-0.002221
4.208243,-0.011800,-0.021265,-0.011884
4.218253,0.002078,-0.017074,-0.004348
4.238334,-0.005379,-0.011674,-0.011820
4.238334,-0.005379,-0.011674,-0.011820
4.248343,0.012740,-0.018196,-0.000051
4.258384,-0.010743,-0.025550,-0.009764
4.268393,-0.004313,-0.012756,-0.009686
4.278434,-0.006473,-0.025584,-0.005480
4.288443,-0.002182,-0.010607,-0.013943
4.318534,-0.006439,-0.009535,-0.011813
4.318534,-0.006439,-0.009535,-0.011813
4.328544,-0.010722,-0.019153,-0.007598
4.338584,-0.007515,-0.010574,-0.017162
4.348594,0.003150,-0.013863,-0.006466
4.358634,-0.020328,-0.020154,-0.015107
4.388694,-0.008580,-0.008420,-0.020360
4.388694,-0.008580,-0.008420,-0.020360
4.398734,0.007411,-0.011716,-0.011785
4.408744,-0.019278,-0.023341,-0.019392
4.418784,-0.010712,-0.008413,-0.020365
4.428794,-0.006468,-0.020214,-0.011864
4.448844,0.005270,-0.012757,-0.016069
4.448844,0.005270,-0.012757,-0.016069
4.458884,-0.020355,-0.027609,-0.019415
4.468894,-0.013916,-0.007304,-0.026778
4.478934,-0.001153,-0.023420,-0.015069
4.488944,-0.010755,-0.021202,-0.025767
4.498984,-0.005393,-0.012707,-0.019303
4.519034,-0.015013,-0.016897,-0.030031
4.529075,-0.002220,-0.024490,-0.014009
4.539084,-0.011831,-0.023320,-0.028985
4.549125,-0.001160,-0.021244,-0.023604
4.559134,-0.020376,-0.034007,-0.021581
4.569175,-0.018212,-0.015803,-0.033240
4.599270,-0.012880,-0.016909,-0.028957
4.599270,-0.012880,-0.016909,-0.028957
4.609311,-0.018249,-0.033998,-0.024780
4.619320,-0.018230,-0.018977,-0.039664
4.629361,-0.005420,-0.020162,-0.023611
4.639371,-0.029973,-0.028575,-0.034401
4.659421,-0.007569,-0.025485,-0.025779
4.659421,-0.007569,-0.025485,-0.025779
4.669461,-0.026751,-0.016813,-0.039677
4.679471,-0.008608,-0.012641,-0.031062
4.689511,-0.021455,-0.030729,-0.036524
4.699521,-0.010751,-0.011520,-0.040676
4.709561,0.000964,-0.021225,-0.028940
4.739621,-0.011845,-0.026508,-0.032205
4.739621,-0.011845,-0.026508,-0.032205
4.749661,-0.007573,-0.015777,-0.046029
4.759671,0.007355,-0.020158,-0.033190
4.769711,-0.010812,-0.033947,-0.040783
4.779721,-0.012873,-0.006159,-0.043861
4.799801,-0.012946,-0.032857,-0.043988
4.809811,-0.005424,-0.011533,-0.041730
4.819851,0.011577,-0.031889,-0.039643
4.829861,-0.004404,-0.025394,-0.047134
4.839902,0.006286,-0.017988,-0.039592
4.849911,-0.008694,-0.037142,-0.043996
4.869961,0.014784,-0.026544,-0.042813
4.880002,-0.001246,-0.038204,-0.050390
4.890011,-0.002249,-0.014701,-0.051350
4.900052,0.022231,-0.028679,-0.048144
4.910061,0.004085,-0.034997,-0.054633
4.920102,0.003060,-0.020043,-0.054565
4.940152,0.008362,-0.026437,-0.060990
4.950162,0.016905,-0.022209,-0.057742
4.960202,0.010469,-0.036061,-0.059962
4.970212,-0.002278,-0.016766,-0.066315
4.980252,0.019029,-0.024346,-0.058814
4.990262,0.000861,-0.037057,-0.068539
5.020352,-0.008715,-0.029535,-0.071734
5.020352,-0.008715,-0.029535,-0.071734
5.030362,0.003061,-0.010351,-0.071611
5.040402,0.020065,-0.031795,-0.065256
5.050412,0.003033,-0.018879,-0.074856
5.060452,0.003060,-0.013580,-0.066285
5.070492,-0.011920,-0.031656,-0.072821
5.080502,0.004115,-0.012470,-0.075891
5.090542,0.031805,-0.028655,-0.059868
5.100552,0.000847,-0.039168,-0.073890
5.110592,0.005183,-0.014634,-0.070557
5.120602,0.009414,-0.028551,-0.066338
5.130642,0.007277,-0.026373,-0.073811
5.160702,-0.000165,-0.017790,-0.076996
5.160702,-0.000165,-0.017790,-0.076996
5.170743,0.013671,-0.028545,-0.070599
5.180752,-0.009816,-0.039118,-0.077124
5.190793,0.005145,-0.023132,-0.080211
5.200802,0.007239,-0.040256,-0.073877
5.220852,-0.005496,-0.016690,-0.080210
5.220852,-0.005496,-0.016690,-0.080210
5.230893,-0.013026,-0.039067,-0.085678
5.240903,-0.001260,-0.019847,-0.093032
5.250943,0.008333,-0.026346,-0.080218
5.260953,-0.016207,-0.027259,-0.096313
5.270993,0.000883,-0.017738,-0.088743
5.291043,0.004072,-0.013411,-0.102601
5.301053,0.017915,-0.024191,-0.090863
5.311093,-0.006636,-0.032609,-0.100585
5.321103,0.009392,-0.018788,-0.098339
5.331143,0.007235,-0.029471,-0.096259
5.341153,0.005106,-0.023011,-0.105848
5.371243,0.006168,-0.024077,-0.106918
5.371243,0.006168,-0.024077,-0.106918
5.381283,0.006163,-0.029447,-0.100534
5.391293,-0.005579,-0.030431,-0.110185
5.401333,0.006152,-0.030490,-0.105880
5.411343,-0.002404,-0.041141,-0.105954
5.431393,0.009346,-0.032646,-0.103745
5.431393,0.009346,-0.032646,-0.103745
5.441434,-0.010913,-0.032550,-0.110210
5.451443,0.009360,-0.022994,-0.112245
5.461484,0.014647,-0.042270,-0.104844
5.471493,0.012536,-0.028324,-0.116535
5.481534,0.013625,-0.025169,-0.106903
5.501584,0.004019,-0.025093,-0.116543
5.501584,0.004019,-0.025093,-0.116543
5.511593,0.029598,-0.030561,-0.106884
5.521634,0.002938,-0.029351,-0.118702
5.531643,0.000839,-0.019753,-0.114390
5.541684,0.010383,-0.037944,-0.113381
5.551694,0.014675,-0.022966,-0.121844
5.571744,0.002914,-0.035738,-0.123006
5.571744,0.002914,-0.035738,-0.123006
5.581784,0.006139,-0.025064,-0.124014
5.591793,0.017852,-0.032608,-0.117608
5.601833,0.006127,-0.027180,-0.128297
5.611843,0.013603,-0.024020,-0.123989
5.621883,0.001827,-0.041054,-0.127307
5.651973,-0.003497,-0.034589,-0.135836
5.651973,-0.003497,-0.034589,-0.135836
5.661983,-0.005602,-0.024970,-0.135797
5.672023,0.006081,-0.041037,-0.133704
5.682033,0.013549,-0.031390,-0.146456
5.692073,0.029556,-0.030429,-0.134657
5.712123,-0.009882,-0.022750,-0.150753
5.712123,-0.009882,-0.022750,-0.150753
5.722133,0.010350,-0.032452,-0.145402
5.732173,0.012461,-0.033471,-0.157151
5.742183,0.017806,-0.032461,-0.148586
5.752224,-0.008864,-0.036606,-0.157225
5.762233,-0.000306,-0.021652,-0.163540
5.792324,0.016732,-0.028125,-0.161387
5.792324,0.016732,-0.028125,-0.161387
5.802333,0.017766,-0.040954,-0.159308
5.812374,0.018850,-0.030243,-0.166732
5.822383,0.028461,-0.028179,-0.158150
5.832424,-0.011017,-0.038684,-0.167923
5.852474,0.037999,-0.046349,-0.161414
5.852474,0.037999,-0.046349,-0.161414
5.862484,0.024134,-0.041967,-0.175319
5.872524,0.025233,-0.033457,-0.168866
5.882534,0.014516,-0.053703,-0.171128
5.892574,0.009224,-0.035491,-0.179602
5.902584,0.013503,-0.034477,-0.171040
5.922664,0.011350,-0.036555,-0.181738
5.932674,0.020893,-0.059053,-0.173272
5.942714,0.005991,-0.040754,-0.193523
5.952724,0.012420,-0.035496,-0.180662
5.962764,0.002764,-0.055730,-0.186125
5.972774,0.012388,-0.041858,-0.190306
6.002864,0.027320,-0.040864,-0.184919
6.002864,0.027320,-0.040864,-0.184919
6.012874,0.014496,-0.051486,-0.188209
6.022914,0.033696,-0.041902,-0.195588
6.032924,0.040106,-0.045202,-0.179563
6.042964,0.001712,-0.046075,-0.194628
6.073024,0.016644,-0.040774,-0.196698
6.073024,0.016644,-0.040774,-0.196698
6.083065,0.016664,-0.037605,-0.189206
6.093074,-0.010013,-0.046032,-0.195728
6.103115,-0.001451,-0.030015,-0.200970
6.113124,0.027309,-0.042984,-0.188133
6.123165,0.011284,-0.049274,-0.202094
6.133174,0.019857,-0.036522,-0.194533
6.143215,0.010229,-0.049306,-0.194620
6.153225,0.012382,-0.035375,-0.206298
6.163265,0.028376,-0.039759,-0.193456
6.173275,0.013401,-0.053543,-0.204245
6.183315,0.029424,-0.040785,-0.203072
6.203365,0.012344,-0.044950,-0.213821
6.213405,0.016646,-0.035393,-0.205218
6.223415,0.008081,-0.044937,-0.213833
6.233455,0.027279,-0.036425,-0.220149
6.243465,0.042186,-0.048276,-0.208413
6.253505,0.017655,-0.049219,-0.218100
6.273555,0.009143,-0.041696,-0.222360
6.273555,0.009143,-0.041696,-0.222360
6.283565,0.008077,-0.034151,-0.236214
6.293605,0.046450,-0.038598,-0.225447
6.303615,0.042118,-0.060990,-0.229838
6.313655,0.044305,-0.037473,-0.236130
6.323665,0.034731,-0.034268,-0.229732
6.343715,0.043262,-0.027848,-0.238224
6.353756,0.061299,-0.059965,-0.234053
6.363765,0.043178,-0.055588,-0.243696
6.373806,0.038981,-0.034241,-0.238266
6.383815,-0.005823,-0.043662,-0.248048
6.393856,-0.001535,-0.032981,-0.251190
6.413906,0.028232,-0.059771,-0.252303
6.413906,0.028232,-0.059771,-0.252303
6.423915,0.041062,-0.047013,-0.249003
6.433956,0.021877,-0.051258,-0.241598
6.443965,-0.002602,-0.028665,-0.259719
6.454006,0.020854,-0.035230,-0.242593
6.464016,0.027188,-0.054448,-0.248008
6.494106,0.052771,-0.051312,-0.251127
6.494106,0.052771,-0.051312,-0.251127
6.504146,0.048536,-0.044926,-0.243631
6.514156,0.036776,-0.053391,-0.252249
6.524196,0.048507,-0.048064,-0.257533
6.534206,0.067696,-0.049220,-0.252144
6.544246,0.033536,-0.065093,-0.259791
6.554256,0.042099,-0.048003,-0.266096
6.564296,0.059142,-0.054491,-0.260738
6.574306,0.031398,-0.059680,-0.273658
6.584346,0.030358,-0.050066,-0.273616
6.594390,0.036718,-0.063980,-0.271527
6.604430,0.048461,-0.051152,-0.282116
6.624480,0.032438,-0.064988,-0.281158
6.624480,0.032438,-0.064988,-0.281158
6.634490,0.037812,-0.048992,-0.279999
6.644530,0.062315,-0.055499,-0.275689
6.654540,0.058016,-0.060759,-0.289613
6.664581,0.061221,-0.059717,-0.286394
6.674590,0.055846,-0.074635,-0.289685
6.694640,0.046317,-0.052183,-0.288536
6.704681,0.021770,-0.062767,-0.291859
6.714690,0.043108,-0.054288,-0.292828
6.724731,0.062275,-0.061836,-0.290674
6.734740,0.044146,-0.060668,-0.299265
6.744781,0.050569,-0.051083,-0.298133
6.764831,0.044156,-0.055314,-0.302444
6.774871,0.054828,-0.052160,-0.299195
6.784881,0.034527,-0.068093,-0.303599
6.794921,0.045235,-0.049972,-0.303484
6.804931,0.053731,-0.063908,-0.298185
6.814971,0.038815,-0.057412,-0.306742
6.835021,0.042007,-0.062792,-0.300349
6.845031,0.049492,-0.049966,-0.307745
6.855071,0.075086,-0.049022,-0.299124
6.865081,0.061170,-0.068174,-0.304594
6.875121,0.065482,-0.050028,-0.305565
6.885131,0.066540,-0.057547,-0.297052
6.895171,0.043086,-0.050988,-0.313109
6.905181,0.068701,-0.042568,-0.304452
6.915221,0.057980,-0.064955,-0.305656
6.925231,0.056945,-0.047814,-0.316260
6.935271,0.055899,-0.047871,-0.303445
6.945281,0.023899,-0.048764,-0.318492
6.955321,0.029258,-0.039180,-0.316296
6.975372,0.039864,-0.053053,-0.325946
6.985381,0.045216,-0.049912,-0.316302
6.995422,0.030261,-0.057298,-0.324924
7.005431,0.034547,-0.046613,-0.329135
7.015472,0.055865,-0.048843,-0.323745
7.025481,0.064350,-0.059509,-0.332318
7.055572,0.053706,-0.050901,-0.338716
7.065612,0.054758,-0.059478,-0.332344
7.075622,0.047279,-0.059398,-0.344115
7.085662,0.061159,-0.053056,-0.339774
7.095672,0.051516,-0.070102,-0.342018
7.115722,0.046233,-0.052992,-0.343019
7.125762,0.018485,-0.063556,-0.348487
7.135772,0.037694,-0.052924,-0.351588
7.145812,0.063256,-0.062649,-0.345154
7.155822,0.051527,-0.060440,-0.352654
7.165862,0.043055,-0.042272,-0.349387
7.185912,0.041954,-0.049699,-0.359039
7.195922,0.062227,-0.048757,-0.346160
7.195922,0.062227,-0.048757,-0.346160
7.215972,0.055800,-0.057255,-0.351559
7.226012,0.050478,-0.058336,-0.345169
7.236022,0.039848,-0.040076,-0.360067
7.236022,0.039848,-0.040076,-0.360067
7.256072,0.067481,-0.075468,-0.347340
7.266113,0.070717,-0.058366,-0.352591
7.276122,0.051548,-0.056198,-0.346225
7.286163,0.033433,-0.048608,-0.357989
7.296172,0.062239,-0.045564,-0.344008
7.306213,0.048324,-0.062565,-0.352673
7.306213,0.048324,-0.062565,-0.352673
7.326263,0.051552,-0.054057,-0.347283
7.326263,0.051552,-0.054057,-0.347283
7.346313,0.043056,-0.039043,-0.354713
7.356353,0.037658,-0.062505,-0.358043
7.366363,0.063236,-0.060432,-0.362235
7.366363,0.063236,-0.060432,-0.362235
7.376403,0.061092,-0.069004,-0.354804
7.386413,0.031256,-0.061386,-0.364465
7.396453,0.023841,-0.045348,-0.363341
7.406463,0.015269,-0.061334,-0.364509
7.426513,0.067486,-0.065791,-0.361181
7.426513,0.067486,-0.065791,-0.361181
7.436553,0.049340,-0.068875,-0.374064
7.446563,0.041918,-0.059280,-0.365494
7.456603,0.018475,-0.054907,-0.370879
7.466613,0.040838,-0.059231,-0.375110
7.476653,0.076010,-0.062579,-0.368620
7.486663,0.066411,-0.064679,-0.369724
7.496703,0.062162,-0.060403,-0.367579
7.506713,0.044051,-0.056058,-0.370813
7.526763,0.070707,-0.055102,-0.365394
7.536803,0.068564,-0.057215,-0.368615
7.536803,0.068564,-0.057215,-0.368615
7.546813,0.081377,-0.051943,-0.363213
7.556853,0.058978,-0.056126,-0.366500
7.566863,0.057934,-0.047574,-0.367530
7.576904,0.061131,-0.049736,-0.364327
7.586913,0.048293,-0.063547,-0.370837
7.596951,0.063240,-0.056135,-0.367556
7.617001,0.029156,-0.045320,-0.372940
7.617001,0.029156,-0.045320,-0.372940
7.627041,0.035536,-0.052836,-0.368685
7.637051,0.038718,-0.053874,-0.377227
7.647091,0.058970,-0.056101,-0.371841
7.657101,0.047214,-0.064576,-0.378323
7.667141,0.057886,-0.060349,-0.376137
7.687191,0.038724,-0.050660,-0.379348
7.697201,0.056838,-0.053938,-0.376109
7.707241,0.058942,-0.063551,-0.377217
7.727291,0.061103,-0.053957,-0.375029
7.727291,0.061103,-0.053957,-0.375029
7.737301,0.045118,-0.049603,-0.381462
7.767391,0.052574,-0.049612,-0.384646
7.767391,0.052574,-0.049612,-0.384646
7.777401,0.062161,-0.056091,-0.376105
7.787441,0.049405,-0.041073,-0.381410
7.797451,0.043025,-0.036791,-0.379271
7.807491,0.044087,-0.038935,-0.378210
7.837551,0.054755,-0.034693,-0.379229
7.837551,0.054755,-0.034693,-0.379229
7.847591,0.053665,-0.046462,-0.373946
7.857601,0.052600,-0.043230,-0.379275
7.867641,0.076047,-0.047613,-0.371753
7.877651,0.070697,-0.052915,-0.376066
7.897732,0.051524,-0.047503,-0.378230
7.897732,0.051524,-0.047503,-0.378230
7.907742,0.047273,-0.041066,-0.381416
7.917782,0.082423,-0.049729,-0.380291
7.927792,0.066392,-0.065696,-0.380411
7.937832,0.058969,-0.049633,-0.384629
7.947842,0.046154,-0.058130,-0.385772
7.967892,0.057893,-0.052828,-0.385715
7.967892,0.057893,-0.052828,-0.385715
7.977932,0.049348,-0.055974,-0.392163
7.987942,0.058946,-0.053869,-0.392126
7.997982,0.042937,-0.060210,-0.395405
8.007992,0.048295,-0.049548,-0.395340
8.018032,0.061089,-0.048526,-0.394231
8.038082,0.054698,-0.046365,-0.395307
8.048092,0.065343,-0.050666,-0.396366
8.058132,0.074918,-0.058183,-0.394239
8.068142,0.058947,-0.052796,-0.393189
8.078182,0.080284,-0.046468,-0.390964
8.088192,0.091970,-0.062545,-0.386735
8.118282,0.074913,-0.065709,-0.383592
8.118282,0.074913,-0.065709,-0.383592
8.128292,0.078171,-0.043288,-0.384546
8.138332,0.076022,-0.052922,-0.378188
8.148342,0.069602,-0.058206,-0.385708
8.158382,0.070695,-0.052910,-0.377134
8.178433,0.047259,-0.046406,-0.381441
8.188473,0.039789,-0.050664,-0.379345
8.198483,0.039796,-0.044221,-0.386792
8.208523,0.054718,-0.046425,-0.382489
8.218533,0.054719,-0.044274,-0.385683
8.228573,0.047275,-0.039993,-0.382479
8.248623,0.040893,-0.033550,-0.385671
8.248623,0.040893,-0.033550,-0.385671
8.258633,0.049390,-0.045335,-0.383567
8.268673,0.064300,-0.045348,-0.391003
8.278683,0.079203,-0.056111,-0.383535
8.288723,0.060036,-0.047485,-0.387820
8.298733,0.067519,-0.041117,-0.384565
8.328823,0.085558,-0.067854,-0.388914
8.338833,0.068517,-0.060298,-0.394267
8.348873,0.042976,-0.047410,-0.392140
8.358883,0.038697,-0.050574,-0.397508
8.368923,0.039734,-0.060184,-0.398618
8.378933,0.031219,-0.053728,-0.402884
8.388973,0.042918,-0.063383,-0.401829
8.398983,0.037579,-0.068720,-0.398665
8.409023,0.017381,-0.047276,-0.402892
8.419033,0.019516,-0.048371,-0.398618
8.429073,0.023740,-0.061185,-0.401872
8.439083,0.035479,-0.058039,-0.397552
8.459164,0.042933,-0.059121,-0.399673
8.469173,0.038695,-0.052725,-0.394313
8.479214,0.023761,-0.055865,-0.397574
8.489224,0.040807,-0.060208,-0.394343
8.499264,0.040804,-0.062354,-0.392217
8.509274,0.034421,-0.058061,-0.392214
8.529324,0.047218,-0.058128,-0.386838
8.529324,0.047218,-0.058128,-0.386838
8.539364,0.038687,-0.057007,-0.392197
8.549374,0.046145,-0.060255,-0.387919
8.559414,0.046133,-0.061293,-0.394333
8.569424,0.037625,-0.059170,-0.385801
8.579464,0.040833,-0.051674,-0.392166
8.609544,0.023776,-0.052682,-0.393286
8.609544,0.023776,-0.052682,-0.393286
8.619584,0.039755,-0.059172,-0.386863
8.629594,0.040805,-0.059125,-0.397542
8.639634,0.054678,-0.055996,-0.391080
8.649644,0.044010,-0.059160,-0.392193
8.669694,0.054675,-0.061371,-0.383628
8.679734,0.050397,-0.061312,-0.393253
8.689744,0.058925,-0.064574,-0.386836
8.699784,0.072775,-0.065682,-0.387871
8.709794,0.075967,-0.069984,-0.383610
8.719834,0.072754,-0.076386,-0.382581
8.749925,0.072753,-0.077459,-0.381518
8.749925,0.072753,-0.077459,-0.381518
8.759934,0.100468,-0.077564,-0.378237
8.769975,0.090876,-0.077533,-0.378263
8.779984,0.062121,-0.068891,-0.379370
8.790025,0.053616,-0.062466,-0.377227
8.810075,0.066367,-0.076391,-0.377257
8.820085,0.065309,-0.074256,-0.376182
8.830125,0.062148,-0.061436,-0.375062
8.840135,0.037638,-0.062444,-0.370861
8.850175,0.042996,-0.049626,-0.375059
8.860185,0.063223,-0.060392,-0.370781
8.880235,0.073855,-0.070038,-0.370797
8.890275,0.064303,-0.057207,-0.367558
8.900285,0.033386,-0.059232,-0.369790
8.910325,0.053650,-0.053958,-0.369709
8.920335,0.076022,-0.058308,-0.368599
8.930375,0.070642,-0.076440,-0.369768
8.950425,0.053621,-0.065715,-0.367628
8.960435,0.035522,-0.059254,-0.366579
8.970475,0.032354,-0.048564,-0.366538
8.980485,0.045088,-0.067818,-0.368730
8.990525,0.073847,-0.075398,-0.366550
9.000535,0.078125,-0.070072,-0.366513
9.020616,0.017413,-0.057069,-0.364483
9.030625,0.020619,-0.056032,-0.360196
9.040666,0.035524,-0.061415,-0.361248
9.050675,0.057887,-0.067890,-0.362286
9.060716,0.046147,-0.074265,-0.361280
9.070725,0.038732,-0.057149,-0.362288
9.100816,0.041914,-0.066806,-0.354847
9.110826,0.022724,-0.069958,-0.352779
9.120866,0.014235,-0.054969,-0.354868
9.130876,0.035537,-0.063612,-0.348440
9.140916,0.051494,-0.074338,-0.349515
9.160966,0.036611,-0.062562,-0.345228
9.170976,0.027019,-0.063609,-0.343123
9.181016,0.024893,-0.061467,-0.343118
9.191026,0.055793,-0.065849,-0.340917
9.201066,0.048309,-0.076524,-0.336716
9.211076,0.021704,-0.060403,-0.339918
9.231126,0.031314,-0.056183,-0.335598
9.241166,0.040893,-0.060481,-0.336660
9.251176,0.043018,-0.064775,-0.333470
9.261216,0.050506,-0.054115,-0.334467
9.271226,0.022794,-0.056176,-0.331349
9.281266,0.012152,-0.048650,-0.334547
9.301316,0.034487,-0.067966,-0.330304
9.311357,0.047300,-0.060542,-0.328097
9.321366,0.050498,-0.062709,-0.323826
9.331407,0.034538,-0.053045,-0.323824
9.341416,0.032421,-0.048777,-0.321673
9.351457,0.055829,-0.064887,-0.318480
9.381516,0.044094,-0.071277,-0.314270
9.381516,0.044094,-0.071277,-0.314270
9.391557,0.059054,-0.057442,-0.314163
9.401567,0.059063,-0.056395,-0.309885
9.411607,0.059022,-0.070268,-0.312088
9.421617,0.066491,-0.071395,-0.304595
9.431657,0.059029,-0.068137,-0.311009
9.441667,0.044141,-0.060653,-0.302469
9.451707,0.013253,-0.050921,-0.306782
9.461717,0.012199,-0.046646,-0.306764
9.471757,0.036696,-0.053138,-0.305659
9.481767,0.047316,-0.067056,-0.305695
9.491807,0.070773,-0.065006,-0.303485
9.521867,0.030339,-0.042464,-0.300285
9.521867,0.030339,-0.042464,-0.300285
9.531907,0.042024,-0.055307,-0.302450
9.541917,0.053752,-0.057511,-0.296019
9.551957,0.055888,-0.055377,-0.297071
9.561967,0.036723,-0.048912,-0.296025
9.582047,0.028217,-0.041409,-0.296013
9.582047,0.028217,-0.041409,-0.296013
9.592087,0.062291,-0.057579,-0.287450
9.602128,0.051629,-0.058607,-0.288552
9.612137,0.026083,-0.045704,-0.289630
9.622178,0.017597,-0.032876,-0.286388
9.632187,0.018645,-0.039287,-0.286416
9.652237,0.036710,-0.061798,-0.281131
9.662278,0.021833,-0.046809,-0.278965
9.672287,0.019733,-0.038284,-0.273589
9.682328,0.020764,-0.053258,-0.269384
9.692337,0.028253,-0.044754,-0.266119
9.702378,0.041028,-0.053370,-0.259715
9.732438,0.054907,-0.050257,-0.250048
9.732438,0.054907,-0.050257,-0.250048
9.742478,0.045297,-0.055555,-0.252236
9.752488,0.040023,-0.039554,-0.244697
9.762528,0.020821,-0.044821,-0.246912
9.772538,0.028273,-0.050205,-0.242644
9.792588,0.033592,-0.055578,-0.239450
9.802628,0.025108,-0.043833,-0.233008
9.812638,0.004872,-0.037350,-0.235170
9.822678,0.007017,-0.033090,-0.234076
9.832688,0.029369,-0.047071,-0.228739
9.842728,0.045348,-0.048176,-0.231905
9.862778,0.014471,-0.039557,-0.226608
9.872818,0.015524,-0.043827,-0.227694
9.882828,0.049612,-0.051424,-0.225499
9.892868,0.048545,-0.053571,-0.222308
9.902878,0.036810,-0.061039,-0.215966
9.912919,0.012350,-0.043893,-0.211680
9.942978,0.035760,-0.060008,-0.207418
9.953019,0.053903,-0.053679,-0.203066
9.963028,0.046451,-0.051530,-0.200939
9.973069,0.032618,-0.045092,-0.197743
9.983078,0.014501,-0.045038,-0.196724
10.003129,0.045366,-0.063314,-0.192453
10.013169,0.037914,-0.065471,-0.182869
10.023179,0.025181,-0.044066,-0.183872
10.033219,-0.003569,-0.035439,-0.181774
10.043229,-0.015289,-0.035411,-0.179670
10.053269,0.013428,-0.060092,-0.174366
10.073319,0.032635,-0.054840,-0.168947
10.083329,-0.012071,-0.036565,-0.163643
10.093369,-0.037636,-0.028986,-0.167951
10.103379,-0.003556,-0.041943,-0.161508
10.113419,0.036913,-0.051670,-0.164647
10.123429,0.039044,-0.054906,-0.159316
10.153519,-0.006711,-0.031293,-0.152921
10.163559,0.007118,-0.040950,-0.152929
10.173569,0.023114,-0.038876,-0.150738
10.183609,0.012446,-0.044196,-0.147588
10.193619,0.015647,-0.040988,-0.150769
10.203660,0.020942,-0.055976,-0.146552
10.213669,0.013512,-0.045278,-0.145454
10.223710,0.006071,-0.039929,-0.142244
10.233719,-0.015242,-0.038792,-0.142298
10.243760,-0.012037,-0.036671,-0.141211
10.253769,0.010313,-0.049569,-0.139074
10.263810,0.018823,-0.057088,-0.135881
10.273819,0.006097,-0.035703,-0.132611
10.283860,-0.025862,-0.029181,-0.134804
10.293869,-0.010943,-0.033532,-0.128374
10.303910,0.015652,-0.051773,-0.128387
10.313920,0.026315,-0.052901,-0.123022
10.323960,0.013541,-0.047525,-0.121964
10.333970,-0.010942,-0.038922,-0.117718
10.344010,-0.018402,-0.036747,-0.120933
10.354020,0.010361,-0.046492,-0.112354
10.364060,0.024190,-0.055070,-0.114492
10.374070,0.014616,-0.051866,-0.108095
10.384110,-0.002394,-0.035786,-0.109134
10.394120,-0.014130,-0.040020,-0.109186
10.404160,0.014648,-0.044426,-0.100582
10.424210,-0.002393,-0.041177,-0.098477
10.434250,-0.000235,-0.031572,-0.098426
10.444260,0.001877,-0.041211,-0.094193
10.454300,0.009315,-0.048705,-0.095276
10.464310,0.002953,-0.039094,-0.090975
10.474350,-0.006639,-0.039062,-0.091001
10.504410,-0.006621,-0.033733,-0.088840
10.514451,-0.022614,-0.036895,-0.086762
10.524460,-0.004491,-0.034813,-0.087771
10.534501,0.009328,-0.048746,-0.086730
10.544510,0.007232,-0.037002,-0.084544
10.554551,-0.006612,-0.031607,-0.086693
10.564560,-0.024741,-0.035825,-0.085695
10.574601,-0.010884,-0.033719,-0.088851
10.584610,0.023206,-0.042399,-0.083457
10.594669,0.006138,-0.045527,-0.087792
10.604678,-0.002340,-0.029495,-0.084535
10.614719,-0.009780,-0.020918,-0.086651
10.634769,-0.002370,-0.041248,-0.083522
10.644779,0.024275,-0.042412,-0.081318
10.654819,0.011492,-0.039162,-0.082406
10.664829,-0.012987,-0.029496,-0.077087
10.674869,-0.006588,-0.027376,-0.078127
10.684879,0.015761,-0.041347,-0.074927
10.694919,0.021080,-0.045641,-0.073864
10.704929,0.010447,-0.037068,-0.072785
10.714969,0.005140,-0.030658,-0.069565
10.725009,0.004051,-0.040276,-0.067477
10.735019,0.012607,-0.030703,-0.065271
10.745059,0.008330,-0.038185,-0.061046
10.755069,-0.001252,-0.033877,-0.062120
10.775119,0.015815,-0.033978,-0.052459
10.785159,0.021131,-0.040418,-0.049271
10.795169,0.026482,-0.032965,-0.048152
10.805209,0.010498,-0.030767,-0.050323
10.815219,0.013706,-0.028656,-0.047099
10.825260,0.031803,-0.037264,-0.046022
10.845310,0.016883,-0.038298,-0.042863
10.855319,0.007311,-0.027558,-0.049248
10.865360,0.007327,-0.023301,-0.046023
10.875369,-0.003338,-0.024319,-0.049262
10.885410,-0.003352,-0.027508,-0.052482
10.895419,0.020070,-0.040429,-0.046069
10.905460,0.023260,-0.041493,-0.049270
10.915470,0.004106,-0.030756,-0.048204
10.925510,-0.005454,-0.018978,-0.048174
10.935520,-0.009747,-0.027487,-0.052499
10.945560,0.009422,-0.033962,-0.051409
10.955570,0.027511,-0.045778,-0.049278
10.965610,0.013660,-0.043592,-0.050374
10.985660,-0.022515,-0.021048,-0.050368
10.995700,-0.015072,-0.028558,-0.048246
11.005710,0.007280,-0.039310,-0.048235
11.015750,0.008326,-0.047867,-0.046137
11.025760,-0.011875,-0.029646,-0.046106
11.035800,-0.015058,-0.023218,-0.048221
11.045810,-0.008687,-0.035012,-0.042918
11.055850,0.004102,-0.033975,-0.045014
11.065860,-0.003384,-0.046796,-0.038686
11.075900,-0.007624,-0.037161,-0.040789
11.085910,-0.006537,-0.031845,-0.036488
11.095950,-0.019336,-0.032851,-0.040801
11.095950,-0.019336,-0.032851,-0.040801
11.116001,-0.000160,-0.037195,-0.038632
11.136051,-0.002272,-0.031864,-0.035408
11.136051,-0.002272,-0.031864,-0.035408
11.156101,-0.026772,-0.026440,-0.036518
11.166110,-0.012933,-0.032897,-0.035442
11.176151,0.007263,-0.052181,-0.036546
11.176151,0.007263,-0.052181,-0.036546
11.196201,-0.003345,-0.033991,-0.036489
11.216251,-0.008678,-0.033964,-0.038640
11.216251,-0.008678,-0.033964,-0.038640
11.236301,0.012612,-0.044722,-0.036496
11.246311,0.013709,-0.034052,-0.035374
11.246311,0.013709,-0.034052,-0.035374
11.256351,-0.021459,-0.029640,-0.040792
11.266361,-0.013983,-0.026481,-0.036483
11.296451,-0.005463,-0.027567,-0.038601
11.296451,-0.005463,-0.027567,-0.038601
11.306491,-0.018268,-0.032860,-0.039730
11.316501,-0.006526,-0.026495,-0.038599
11.326541,0.006267,-0.026547,-0.036428
11.336551,-0.004410,-0.032915,-0.037555
11.366641,0.001999,-0.031903,-0.030055
11.366641,0.001999,-0.031903,-0.030055
11.376651,0.001990,-0.036185,-0.027939
11.386691,0.006260,-0.035141,-0.025786
11.396701,0.004127,-0.035129,-0.026860
11.406741,-0.000139,-0.037261,-0.024746
11.426792,0.019013,-0.050149,-0.022617
11.436801,0.006261,-0.038375,-0.019392
11.446842,-0.015018,-0.023345,-0.021516
11.456851,-0.002276,-0.043702,-0.016236
11.466892,0.016910,-0.041613,-0.019378
11.476901,0.025434,-0.045943,-0.012966
11.506992,0.021186,-0.042746,-0.008689
11.506992,0.021186,-0.042746,-0.008689
11.517001,0.017956,-0.052327,-0.013016
11.527042,0.022241,-0.045948,-0.009770
11.537052,0.010519,-0.044837,-0.010865
11.547092,-0.013962,-0.031932,-0.013008
11.577182,0.007345,-0.037361,-0.008702
11.577182,0.007345,-0.037361,-0.008702
11.587192,0.008418,-0.034156,-0.009752
11.597254,-0.002237,-0.031975,-0.011908
11.607264,-0.008610,-0.023406,-0.012953
11.617304,-0.003297,-0.029836,-0.011901
11.627314,0.005223,-0.030921,-0.014019
11.637354,0.019074,-0.033107,-0.012922
11.647364,0.000963,-0.029840,-0.014025
11.657404,-0.008594,-0.016993,-0.013991
11.667414,0.000982,-0.022359,-0.015058
11.677454,0.007378,-0.021307,-0.016104
11.687464,-0.005432,-0.029819,-0.014043
11.707514,0.009511,-0.022397,-0.012898
11.717554,-0.016091,-0.029779,-0.015140
11.727564,-0.021388,-0.018015,-0.015099
11.737605,-0.010733,-0.020195,-0.012944
11.747614,0.003090,-0.031987,-0.012961
11.757655,-0.002234,-0.031985,-0.009771
11.777705,-0.002203,-0.021311,-0.008653
11.777705,-0.002203,-0.021311,-0.008653
11.787714,-0.019263,-0.025543,-0.005515
11.797755,-0.020303,-0.017001,-0.004409
11.807764,0.004186,-0.025624,-0.004382
11.817805,0.012684,-0.037409,-0.002278
11.827814,-0.005410,-0.028812,-0.001219
11.857905,-0.016051,-0.023442,-0.000155
11.857905,-0.016051,-0.023442,-0.000155
11.867945,-0.006467,-0.025604,-0.001207
11.877955,-0.010734,-0.027731,-0.000161
11.887995,-0.025660,-0.028746,-0.001275
11.898005,-0.026698,-0.018058,-0.002296
11.918055,-0.005402,-0.025603,-0.002272
11.918055,-0.005402,-0.025603,-0.002272
11.928095,-0.007541,-0.028805,-0.001225
11.938105,0.000981,-0.029895,-0.002275
11.948145,-0.016053,-0.023437,-0.001223
11.958155,-0.017099,-0.014880,-0.003322
11.968195,-0.002203,-0.025618,-0.001195
11.998255,-0.003279,-0.029892,-0.000150
11.998255,-0.003279,-0.029892,-0.000150
12.008295,-0.010713,-0.017027,-0.005451
12.018305,-0.001126,-0.020272,-0.003304
12.028346,-0.001131,-0.022413,-0.002246
12.038355,-0.005400,-0.024535,-0.002267
12.058405,0.002063,-0.024564,-0.001179
12.058405,0.002063,-0.024564,-0.001179
12.068446,-0.005386,-0.020268,-0.001179
12.078455,-0.006453,-0.022416,0.002013
12.088496,-0.005402,-0.026681,-0.000141
12.098505,0.004193,-0.027800,0.004153
12.108546,0.001009,-0.021367,0.000970
12.138636,-0.000071,-0.027781,0.003073
12.148646,0.012714,-0.031042,0.006298
12.158686,0.007377,-0.032077,0.003073
12.168696,-0.007524,-0.027782,0.008393
12.178736,-0.017083,-0.013853,0.005228
12.208796,0.010598,-0.026773,0.008448
12.208796,0.010598,-0.026773,0.008448
12.218836,-0.008599,-0.029905,0.006244
12.228846,-0.013903,-0.021349,0.007338
12.238886,-0.012837,-0.022430,0.009472
12.248896,0.008482,-0.020354,0.007405
12.268946,-0.011751,-0.013880,0.007379
12.268946,-0.011751,-0.013880,0.007379
12.278986,0.002098,-0.017134,0.008470
12.288996,-0.007524,-0.027782,0.008393
12.299036,-0.006383,-0.001093,0.009591
12.309046,-0.006445,-0.023519,0.009485
12.319086,-0.005366,-0.019256,0.010576
12.349146,-0.009627,-0.016018,0.006307
12.349146,-0.009627,-0.016018,0.006307
12.359187,-0.009627,-0.019247,0.011633
12.369196,-0.010673,-0.009612,0.007403
12.379237,-0.025606,-0.013835,0.007341
12.389246,-0.002169,-0.018188,0.008454
12.409296,-0.012824,-0.016008,0.006298
12.409296,-0.012824,-0.016008,0.006298
12.419337,-0.020262,-0.010669,0.011644
12.429377,-0.019227,-0.020269,0.008397
12.439387,0.004228,-0.020370,0.013802
12.449427,0.002103,-0.014998,0.008481
12.459437,-0.009623,-0.018184,0.012706
12.479487,-0.003196,-0.005380,0.010648
12.489527,0.001038,-0.014995,0.008478
12.499537,0.003140,-0.027837,0.012696
12.509577,-0.003218,-0.013928,0.011676
12.519587,0.002114,-0.011800,0.009564
12.529627,-0.014959,-0.020298,0.011613
12.539637,-0.014943,-0.013885,0.010575
12.549677,0.004220,-0.023574,0.013787
12.559687,-0.009640,-0.021363,0.007350
12.569727,-0.008557,-0.019266,0.014840
12.579737,-0.017104,-0.024558,0.010519
12.589777,-0.012831,-0.020295,0.009482
12.599801,-0.012829,-0.021378,0.012682
12.619851,0.011649,-0.034272,0.012689
12.619851,0.011649,-0.034272,0.012689
12.629891,0.006320,-0.033177,0.010543
12.639901,-0.009638,-0.021368,0.008418
12.649942,-0.003253,-0.027822,0.013746
12.659951,-0.007546,-0.036331,0.009421
12.669992,0.024480,-0.019363,0.012795
12.700082,0.001040,-0.017156,0.013808
12.700082,0.001040,-0.017156,0.013808
12.710092,-0.003247,-0.024608,0.011625
12.720132,-0.018147,-0.014933,0.008425
12.730142,-0.001133,-0.032100,0.013732
12.740182,0.008431,-0.040660,0.010513
12.750192,0.007436,-0.016104,0.012763
12.760232,-0.014956,-0.020308,0.013749
12.770242,-0.031992,-0.010611,0.007339
12.780282,-0.008563,-0.021402,0.014830
12.790292,0.016977,-0.035363,0.013766
12.800332,0.007424,-0.019298,0.010611
12.810342,-0.025589,-0.011735,0.014829
12.840432,0.014870,-0.025739,0.012738
12.840432,0.014870,-0.025739,0.012738
12.850442,-0.010703,-0.023521,0.012678
12.860482,-0.016023,-0.020299,0.012678
12.870492,-0.004294,-0.017124,0.010589
12.880532,0.005289,-0.023588,0.015926
12.890542,-0.013914,-0.028855,0.013712
12.900582,-0.004267,-0.008590,0.012766
12.910592,-0.005348,-0.015005,0.014869
12.920632,-0.009630,-0.021393,0.013759
12.930642,0.004216,-0.027871,0.019108
12.940683,0.014904,-0.013997,0.013862
12.950692,-0.010677,-0.014987,0.014855
12.960733,-0.017099,-0.025651,0.015855
12.970742,0.011700,-0.018274,0.017037
12.980783,0.020228,-0.018307,0.018129
12.990823,-0.002168,-0.020344,0.012716
13.000833,0.003164,-0.020372,0.014867
13.010873,0.002081,-0.026776,0.014834
13.020883,0.023439,-0.010821,0.013900
13.030923,0.008476,-0.030031,0.021246
13.040933,-0.023489,-0.021338,0.011584
13.050973,0.003201,-0.007562,0.015996
13.060983,-0.002188,-0.029976,0.016944
13.071023,-0.002161,-0.017136,0.011663
13.081033,0.013817,-0.024698,0.019149
13.091073,-0.013940,-0.037388,0.011535
13.101083,-0.004298,-0.021421,0.015910
13.111123,0.014900,-0.018294,0.019182
13.121133,0.010605,-0.025721,0.011658
13.131173,0.009509,-0.039625,0.016930
13.141183,0.002081,-0.026776,0.014834
13.151223,-0.002134,-0.009680,0.015972
13.161233,-0.008558,-0.021417,0.018035
13.191323,0.011657,-0.032142,0.013767
13.191323,0.011657,-0.032142,0.013767
13.201333,0.007417,-0.024662,0.015927
13.211373,-0.036242,-0.011716,0.018004
13.221383,-0.040507,-0.006311,0.007336
13.231423,-0.003262,-0.031025,0.013731
13.251474,-0.000054,-0.027837,0.014823
13.251474,-0.000054,-0.027837,0.014823
13.261483,-0.019223,-0.022435,0.014796
13.271524,-0.040503,-0.007400,0.011603
13.281564,-0.030917,-0.010645,0.013751
13.291574,0.018054,-0.031095,0.013790
13.301614,0.016966,-0.041791,0.018009
13.331674,-0.027728,-0.014937,0.015876
13.331674,-0.027728,-0.014937,0.015876
13.341714,-0.005380,-0.024596,0.010551
13.351724,0.013751,-0.048188,0.017970
13.361764,0.015914,-0.035369,0.015900
13.371774,-0.029852,-0.010643,0.012686
13.391824,0.018064,-0.026818,0.012742
13.401864,0.019108,-0.038599,0.019098
13.411874,-0.002166,-0.021428,0.015916
13.421914,-0.006435,-0.023550,0.015894
13.431924,-0.008579,-0.027814,0.015868
13.441964,0.005324,-0.011851,0.018118
13.462014,-0.000064,-0.029958,0.011608
13.472024,-0.000023,-0.018241,0.018073
13.482064,-0.000054,-0.028915,0.016954
13.492074,0.009572,-0.016126,0.015973
13.502114,-0.033076,-0.022400,0.016894
13.512124,0.001037,-0.018224,0.013803
13.542214,-0.009595,-0.009656,0.015951
13.552255,-0.026684,-0.022411,0.014775
13.562265,-0.006464,-0.031000,0.010518
13.572305,0.025490,-0.045042,0.022290
13.582315,0.023372,-0.035384,0.013784
13.602392,-0.048001,-0.023415,0.015780
13.612432,-0.008573,-0.025678,0.015878
13.622442,0.020166,-0.041811,0.020154
13.632482,-0.005409,-0.036353,0.012632
13.642492,0.004232,-0.022536,0.020201
13.652532,-0.036304,-0.033064,0.015766
13.672582,0.004242,-0.018260,0.019153
13.682592,-0.005425,-0.042766,0.013669
13.692632,0.004189,-0.037482,0.019062
13.702642,-0.009619,-0.019272,0.016974
13.712682,-0.008547,-0.018218,0.019118
13.722692,-0.033097,-0.030949,0.017922
13.752782,0.003116,-0.038532,0.015850
13.762792,-0.002194,-0.032112,0.016933
13.772832,-0.022401,-0.017100,0.018017
13.782842,-0.026660,-0.014945,0.016947
13.792882,-0.000050,-0.028925,0.019091
13.822942,-0.007508,-0.026755,0.016944
13.832982,-0.004300,-0.023567,0.018036
13.843023,-0.018124,-0.010696,0.015923
13.853033,-0.008564,-0.023553,0.018025
13.863073,-0.002179,-0.026772,0.016959
13.873083,-0.002172,-0.025719,0.020168
13.883123,-0.004310,-0.025692,0.015890
13.893133,-0.019209,-0.018173,0.016952
13.903173,-0.009596,-0.011807,0.019145
13.913183,0.006350,-0.025732,0.016987
13.923223,-0.006454,-0.031030,0.016927
13.933233,-0.006420,-0.019288,0.018051
13.953283,-0.004293,-0.020358,0.016983
13.963323,-0.010670,-0.015007,0.019127
13.973333,0.000993,-0.036399,0.017990
13.983373,0.027624,-0.042903,0.020169
13.993383,-0.000038,-0.025731,0.021242
14.003423,-0.034128,-0.017052,0.015848
14.033483,0.015913,-0.038599,0.021226
14.033483,0.015913,-0.038599,0.021226
14.043523,-0.015014,-0.044901,0.020042
14.053533,-0.031994,-0.017069,0.017990
14.063573,-0.049024,-0.009543,0.019047
14.073583,-0.025637,-0.028817,0.013680
14.093633,-0.000118,-0.053487,0.018974
14.103673,-0.043735,-0.023438,0.017928
14.113683,-0.064991,0.000140,0.014776
14.123723,-0.036241,-0.008486,0.012678
14.133764,0.008448,-0.038559,0.018001
14.143773,0.004148,-0.050277,0.014729
14.163824,-0.037299,-0.007430,0.015885
14.173864,-0.045814,-0.003131,0.015882
14.183874,-0.010703,-0.023521,0.012678
14.193914,0.016977,-0.035363,0.013766
14.203924,0.004206,-0.028919,0.014830
14.213964,-0.044772,-0.010600,0.013713
14.244024,-0.002159,-0.018219,0.014863
14.254064,0.014896,-0.019357,0.018109
14.264074,-0.007505,-0.022458,0.011623
14.274114,-0.015998,-0.012839,0.015918
14.284124,-0.011734,-0.011780,0.014867
14.304174,0.005303,-0.018248,0.015952
14.314214,-0.006451,-0.029962,0.016932
14.324224,-0.013880,-0.017113,0.014836
14.334264,-0.014957,-0.022459,0.016944
14.344274,-0.011765,-0.025683,0.019074
14.354314,-0.010688,-0.019259,0.014834
14.374364,0.006325,-0.033192,0.013747
14.384374,0.005287,-0.025739,0.019121
14.394414,-0.007519,-0.028876,0.013729
14.404455,-0.018191,-0.035259,0.015806
14.414464,-0.007514,-0.027813,0.014803
14.424505,0.003142,-0.028920,0.015895
14.444555,-0.010712,-0.028880,0.016925
14.454564,-0.022424,-0.023493,0.014782
14.464605,-0.023504,-0.028829,0.014754
14.474615,-0.001123,-0.028901,0.014815
14.484655,0.004209,-0.027851,0.014835
14.494665,-0.006456,-0.029947,0.013727
14.524755,-0.006437,-0.023544,0.014826
14.534765,-0.017099,-0.025651,0.015855
14.544805,0.002122,-0.012903,0.017036
14.554815,0.004209,-0.027851,0.014835
14.564855,0.002068,-0.032121,0.015877
14.584905,-0.018164,-0.023496,0.012657
14.594915,-0.020290,-0.020275,0.010530
14.604944,-0.006431,-0.020331,0.012705
14.614954,-0.022414,-0.018138,0.011603
14.624994,-0.037348,-0.022356,0.010473
14.635004,-0.012848,-0.026702,0.009452
14.655054,-0.009636,-0.021373,0.009486
14.665094,0.001025,-0.022496,0.013783
14.675104,-0.021363,-0.023481,0.011580
14.685144,-0.009637,-0.023524,0.012681
14.695185,0.014836,-0.038560,0.013745
14.705194,0.001001,-0.029961,0.011611
14.725244,-0.019218,-0.019221,0.012675
14.735285,0.008462,-0.032141,0.015895
14.745294,-0.012865,-0.035266,0.013684
14.755335,-0.004310,-0.025692,0.015890
14.765344,-0.028836,-0.028801,0.012603
14.775385,-0.008582,-0.027804,0.013732
14.795435,0.004169,-0.040651,0.011570
14.805445,0.001014,-0.027845,0.015894
14.815485,-0.021373,-0.028836,0.014760
14.825495,0.001013,-0.026767,0.013763
14.835535,0.005258,-0.034262,0.014807
14.845545,0.000991,-0.034238,0.012659
14.865595,-0.027749,-0.021334,0.013709
14.875635,-0.019208,-0.016022,0.013758
14.885645,-0.006469,-0.030985,0.007313
14.895685,0.021241,-0.033226,0.010584
14.905695,0.005254,-0.034252,0.012671
14.915735,-0.006436,-0.020315,0.009500
14.935785,-0.014957,-0.018152,0.009487
14.945795,0.007403,-0.026773,0.010576
14.955835,0.015913,-0.032135,0.009506
14.965845,0.013803,-0.025731,0.011667
14.975885,-0.020279,-0.017077,0.011614
14.985926,-0.022376,-0.002099,0.007406
14.995935,0.001035,-0.017141,0.010604
15.005976,0.016966,-0.037483,0.010552
15.015985,0.021265,-0.024682,0.010624
15.026026,-0.006436,-0.021393,0.011631
15.036035,-0.014936,-0.010676,0.009522
15.046076,0.006385,-0.010761,0.012785
15.056085,0.014861,-0.028943,0.012723
15.076136,-0.005358,-0.018203,0.013786
15.086176,-0.005355,-0.016057,0.011660
15.096186,-0.001109,-0.023557,0.013772
15.096186,-0.001109,-0.023557,0.013772
15.116236,-0.007506,-0.022453,0.010555
15.126276,-0.020291,-0.020270,0.009462
15.156336,-0.003245,-0.022462,0.009499
15.166376,-0.014967,-0.022429,0.010535
15.176386,0.002080,-0.023542,0.008440
15.176386,0.002080,-0.023542,0.008440
15.186426,0.025506,-0.034323,0.013795
15.196436,-0.001122,-0.025672,0.009489
15.226526,0.028687,-0.036433,0.006316
15.226526,0.028687,-0.036433,0.006316
15.236536,0.021257,-0.027891,0.011677
15.246576,-0.020299,-0.022401,0.008384
15.256616,-0.028801,-0.011679,0.005206
15.266626,-0.008544,-0.010687,0.007403
15.306726,-0.023460,-0.006347,0.003110
15.306726,-0.023460,-0.006347,0.003110
15.316767,-0.023474,-0.013842,0.007347
15.326776,0.007407,-0.022476,0.005255
15.336817,0.021244,-0.030002,0.006326
15.366876,-0.003190,-0.002166,0.008527
15.366876,-0.003190,-0.002166,0.008527
15.376917,-0.009638,-0.021368,0.008418
15.386927,-0.003243,-0.020311,0.006304
15.396967,0.015944,-0.019305,0.006362
15.406977,0.012729,-0.027858,0.010586
15.437067,-0.009631,-0.018159,0.007365
15.437067,-0.009631,-0.018159,0.007365
15.447077,0.003147,-0.022472,0.007380
15.457117,0.012745,-0.021446,0.009548
15.467127,0.002078,-0.023537,0.007372
15.477167,-0.003236,-0.019258,0.009514
15.507227,0.002077,-0.024610,0.008435
15.517267,0.016972,-0.035348,0.010562
15.527277,0.016985,-0.030003,0.009519
15.537317,0.003169,-0.015002,0.008483
15.547357,-0.001121,-0.023521,0.006295
15.577417,0.002071,-0.026746,0.008425
15.577417,0.002071,-0.026746,0.008425
15.587458,0.007417,-0.019277,0.006339
15.597502,0.001005,-0.026742,0.008422
15.607543,-0.003248,-0.021373,0.005231
15.617552,0.001017,-0.021392,0.006311
15.647643,-0.007520,-0.024563,0.005204
15.647643,-0.007520,-0.024563,0.005204
15.657652,-0.004291,-0.011749,0.003137
15.667693,-0.002171,-0.016027,0.003123
15.677702,-0.013940,-0.032003,0.001947
15.687743,-0.010705,-0.018130,0.002021
15.717803,0.001037,-0.011761,0.002084
15.717803,0.001037,-0.011761,0.002084
15.727843,-0.002214,-0.029895,-0.000148
15.737853,0.002056,-0.028851,0.002006
15.747893,-0.006437,-0.017081,0.003106
15.757903,-0.005369,-0.013861,-0.001149
15.787993,0.006363,-0.012846,0.002093
15.798003,-0.011766,-0.015986,0.000960
15.808043,-0.013881,-0.010644,0.002048
15.818083,0.012752,-0.016081,0.004232
15.828093,0.012733,-0.021405,0.001002
15.848143,-0.014949,-0.010636,0.000977
15.858183,-0.008580,-0.021346,0.003080
15.868193,-0.007494,-0.012796,0.000987
15.878234,-0.006431,-0.014945,0.003116
15.888243,-0.007529,-0.026689,0.003058
15.898284,-0.003251,-0.020285,0.000963
15.918334,-0.003279,-0.029892,-0.000150
15.928343,-0.002194,-0.023493,0.000951
15.938384,-0.017110,-0.019152,-0.003343
15.948393,-0.006449,-0.020275,0.000954
15.958434,-0.017138,-0.029836,-0.002325
15.968443,-0.009651,-0.020249,-0.002259
15.998534,-0.012816,-0.008492,-0.002212
16.008544,-0.005397,-0.023467,-0.002262
16.018584,0.003134,-0.022432,-0.001166
16.028594,-0.010689,-0.010640,-0.001148
16.038634,-0.014948,-0.008485,-0.002218
16.058684,-0.001095,-0.010676,-0.000054
16.058684,-0.001095,-0.010676,-0.000054
16.068694,0.007404,-0.021388,0.000988
16.078734,-0.003259,-0.022416,-0.000115
16.088744,0.004256,-0.004301,0.003196
16.098784,-0.008531,-0.002113,0.001035
16.108824,-0.016013,-0.009559,-0.000089
16.138884,0.010631,-0.011797,0.003178
16.138884,0.010631,-0.011797,0.003178
16.148924,-0.009602,-0.004246,0.001022
16.158934,-0.000018,-0.009637,0.005295
16.168974,0.006342,-0.020322,0.002058
16.178984,0.004240,-0.009635,0.002103
16.209075,-0.006408,-0.005324,0.001025
16.219084,-0.011743,-0.007442,0.001001
16.229125,0.006347,-0.018181,0.001000
16.239134,-0.010701,-0.018140,0.004157
16.249175,-0.019196,-0.004209,-0.000073
16.269225,0.010599,-0.021393,-0.000072
16.279234,0.006352,-0.014967,-0.001121
16.289275,-0.002197,-0.024560,0.000946
16.299285,-0.004282,-0.006389,-0.001110
16.309325,-0.014952,-0.011704,0.000972
16.319335,-0.001120,-0.020292,0.000969
16.349425,-0.010705,-0.015974,-0.002242
16.349425,-0.010705,-0.015974,-0.002242
16.359435,-0.018124,-0.002077,-0.000060
16.369475,-0.018141,-0.007412,-0.001153
16.379485,-0.006436,-0.013852,-0.002220
16.389525,0.004213,-0.018169,-0.000074
16.419615,-0.024521,-0.000973,-0.003277
16.429625,-0.034118,-0.002005,-0.004377
16.439665,-0.006430,-0.012794,-0.000078
16.449675,0.010615,-0.014981,-0.001110
16.459715,-0.007487,-0.008509,-0.002197
16.479765,-0.019212,-0.009544,-0.001166
16.479765,-0.019212,-0.009544,-0.001166
16.489775,0.002107,-0.009623,0.001029
16.499816,-0.002186,-0.019211,-0.001165
16.509825,-0.003226,-0.011747,0.002072
16.519866,-0.007495,-0.013869,0.002050
16.529875,-0.000021,-0.007475,-0.000035
16.549925,-0.008573,-0.017059,-0.000104
16.549925,-0.008573,-0.017059,-0.000104
16.559966,0.007442,-0.007505,0.001053
16.569975,0.001027,-0.016038,0.003132
16.580016,-0.017067,-0.005284,-0.000072
16.590025,-0.005340,-0.005332,0.002096
16.600083,-0.003249,-0.019217,0.000968
16.630143,-0.011750,-0.010651,0.002054
16.630143,-0.011750,-0.010651,0.002054
16.640183,0.004247,-0.006426,0.001050
16.650193,0.014864,-0.022490,0.003139
16.660233,0.007388,-0.027800,0.002025
16.670273,0.001034,-0.011751,-0.000053
16.700333,-0.000023,-0.008543,-0.000040
16.700333,-0.000023,-0.008543,-0.000040
16.710373,0.003140,-0.021374,0.000976
16.720383,0.004244,-0.005338,-0.003218
16.730423,-0.016028,-0.014899,-0.000115
16.740433,-0.005361,-0.010652,-0.002202
16.770523,-0.012821,-0.009555,-0.003285
16.780533,0.003168,-0.011768,0.002090
16.790574,-0.007506,-0.014912,-0.003296
16.800583,-0.006424,-0.009580,-0.002200
16.810624,-0.011740,-0.004218,-0.003257
16.840683,-0.006417,-0.007450,-0.001121
16.840683,-0.006417,-0.007450,-0.001121
16.850724,-0.009632,-0.014925,0.000971
16.860733,-0.011743,-0.006364,-0.001131
16.870774,-0.015978,0.004334,-0.002160
16.880783,-0.019190,-0.002074,-0.000063
16.910874,-0.004301,-0.013869,-0.000077
16.910874,-0.004301,-0.013869,-0.000077
16.920884,-0.041537,0.011892,-0.002195
16.930924,-0.022360,0.007543,0.001042
16.940934,-0.000057,-0.021364,0.000967
16.950974,0.005308,-0.007493,-0.000021
16.971024,-0.017111,-0.022381,0.001983
16.981064,-0.044712,0.019373,-0.001100
16.991074,-0.014894,0.007504,0.004267
17.001114,0.014833,-0.031008,-0.002242
17.011124,0.025526,-0.019306,-0.000021
17.021164,-0.003222,-0.008528,-0.001117
17.051224,-0.019223,-0.012743,-0.002250
17.051224,-0.019223,-0.012743,-0.002250
17.061264,0.003156,-0.012805,-0.004325
17.071274,-0.006454,-0.019182,-0.004381
17.081314,-0.030920,-0.002015,-0.004368
17.091324,-0.031976,0.000109,-0.001156
17.121415,-0.002157,-0.006375,-0.005377
17.131424,0.007391,-0.022425,-0.005427
17.141465,0.025521,-0.021442,-0.000031
17.151474,-0.000011,-0.002121,-0.003215
17.161515,-0.014936,-0.006369,0.002065
17.171524,0.002114,-0.007493,0.002107
17.181565,-0.001092,-0.010686,0.002083
17.191574,-0.004283,-0.008540,0.002084
17.201615,0.005314,-0.003201,-0.004273
17.211625,0.011649,-0.026731,-0.001162
17.221665,0.003149,-0.019248,0.003122
17.231675,-0.033029,0.007613,-0.006465
17.241715,-0.033034,0.003321,-0.002212
17.251755,-0.010692,-0.010629,-0.003284
17.261765,-0.002204,-0.024540,-0.003327
17.271805,0.014885,-0.010708,-0.004282
17.281815,0.002096,-0.010666,-0.004318
17.291855,-0.033052,-0.003086,-0.002242
17.301865,-0.046873,0.013008,-0.008614
17.331955,0.032931,-0.037465,-0.004359
17.341965,-0.009625,-0.007404,-0.008607
17.352005,-0.043685,0.007643,-0.005426
17.362015,-0.042634,0.003378,-0.007579
17.372055,0.014848,-0.022440,-0.007543
17.392105,0.033985,-0.040662,-0.006508
17.402115,-0.044770,0.001244,-0.006527
17.412156,-0.061806,0.008785,-0.008675
17.422165,-0.024545,-0.007360,-0.007580
17.432206,0.012711,-0.025647,-0.005427
17.442215,0.036117,-0.038518,-0.009696
17.462265,-0.019175,0.008651,-0.009626
17.472306,-0.066088,0.003474,-0.011917
17.482315,-0.030946,-0.008397,-0.009739
17.492356,0.007408,-0.013862,-0.009659
17.502365,0.010571,-0.027765,-0.007580
17.512406,-0.008598,-0.021290,-0.008670
17.542496,-0.039466,-0.006234,-0.009752
17.552506,-0.019248,-0.019125,-0.007621
17.562546,-0.002197,-0.020253,-0.006511
17.572556,-0.009646,-0.015957,-0.006511
17.582596,-0.035206,-0.008394,-0.007615
17.602662,-0.002197,-0.021331,-0.004380
17.612672,0.002068,-0.020272,-0.005431
17.622712,-0.007489,-0.008504,-0.003266
17.632722,-0.022414,-0.009518,-0.004380
17.642762,-0.013900,-0.013818,-0.004377
17.652772,-0.006433,-0.012784,-0.002215
17.672822,-0.013923,-0.023439,-0.002286
17.672822,-0.013923,-0.023439,-0.002286
17.682862,-0.024526,-0.002036,-0.004350
17.692872,-0.020254,0.002232,-0.006455
17.702912,-0.000068,-0.022406,-0.004379
17.712922,0.008423,-0.034171,-0.006548
17.722963,0.005256,-0.022408,-0.007569
17.753022,-0.036258,-0.005202,-0.004398
17.753022,-0.036258,-0.005202,-0.004398
17.763063,-0.011798,-0.023426,-0.006553
17.773072,0.010565,-0.032057,-0.003327
17.783113,0.004192,-0.023488,-0.004372
17.793122,-0.025632,-0.016984,-0.004424
17.813203,-0.021353,-0.010585,-0.005450
17.813203,-0.021353,-0.010585,-0.005450
17.823213,0.009495,-0.033117,-0.004403
17.833253,0.009496,-0.032044,-0.005466
17.843263,0.001015,-0.016002,-0.004346
17.853303,-0.019233,-0.015941,-0.003333
17.863313,-0.042674,-0.011578,-0.006582
17.883363,0.019087,-0.034226,-0.002246
17.893403,0.002028,-0.034150,-0.006565
17.903413,-0.019218,-0.010602,-0.003308
17.913453,-0.043750,-0.014774,-0.007668
17.923463,-0.029906,-0.019090,-0.007650
17.933503,0.014814,-0.038489,-0.001209
17.953553,-0.024552,-0.011647,-0.004396
17.953553,-0.024552,-0.011647,-0.004396
17.963563,-0.041600,-0.010529,-0.003369
17.973603,-0.024555,-0.012715,-0.004401
17.983613,0.014838,-0.029945,-0.001169
17.993653,0.023330,-0.041715,-0.002269
18.003663,-0.004313,-0.017063,-0.002229
18.023713,-0.032002,-0.007346,-0.005464
18.033754,0.005273,-0.019230,-0.002213
18.043763,0.020103,-0.051306,-0.004460
18.053804,-0.001173,-0.037359,-0.003385
18.063813,-0.018143,-0.006328,-0.004353
18.073854,-0.042685,-0.016928,-0.004471
18.093904,0.014841,-0.025648,-0.006490
18.103944,0.016931,-0.042757,-0.003360
18.113954,-0.009656,-0.020234,-0.005463
18.123994,-0.025622,-0.013785,-0.003341
18.134004,-0.026679,-0.009499,-0.005460
18.144044,-0.007514,-0.015964,-0.006506
18.174104,-0.009672,-0.026647,-0.004426
18.174104,-0.009672,-0.026647,-0.004426
18.184144,-0.024552,-0.010569,-0.006527
18.194154,-0.040525,-0.004100,-0.008677
18.204194,-0.027786,-0.024447,-0.005534
18.214204,0.009515,-0.024563,-0.006499
18.234254,-0.002222,-0.028792,-0.007620
18.244294,-0.030932,-0.005209,-0.006519
18.254304,-0.035213,-0.012681,-0.004430
18.264344,-0.003284,-0.028798,-0.005486
18.274354,0.015897,-0.031007,-0.003307
18.284394,0.019074,-0.038493,-0.003334
18.294404,-0.000094,-0.033096,-0.002293
18.304444,-0.018142,-0.008485,-0.000090
18.314454,-0.020273,-0.006327,-0.003291
18.324495,-0.003288,-0.034173,0.001966
18.334504,0.014818,-0.036348,-0.002267
18.344545,0.012697,-0.033142,-0.001190
18.354554,-0.013946,-0.033061,-0.000195
18.374635,-0.020235,0.005405,-0.000030
18.384645,0.009506,-0.030996,-0.001189
18.394685,0.020135,-0.042788,0.000921
18.404695,0.010580,-0.028874,0.000961
18.414735,-0.023478,-0.010598,-0.001183
18.424745,-0.042628,0.002279,-0.001175
18.444795,0.041465,-0.037518,0.001005
18.454835,0.035051,-0.042821,-0.002242
18.464845,-0.011780,-0.019174,-0.002260
18.474885,-0.051155,0.001234,-0.000136
18.484895,-0.042637,0.000154,-0.003322
18.494935,0.012724,-0.023531,-0.001144
18.504945,0.031837,-0.048145,-0.003344
18.514985,0.013744,-0.039548,-0.002286
18.524995,-0.006446,-0.018129,-0.001172
18.535035,-0.030920,-0.003093,-0.002237
18.545045,-0.024549,-0.010579,-0.004391
18.555085,0.010545,-0.040611,-0.001231
18.565095,0.033997,-0.038546,-0.002225
18.585145,-0.032000,-0.009507,-0.000133
18.595185,-0.027706,0.002231,-0.001134
18.605206,-0.008601,-0.026665,-0.001218
18.615246,0.015900,-0.029939,-0.003302
18.625256,0.023386,-0.021425,-0.002173
18.635297,-0.000057,-0.020286,-0.001164
18.655347,-0.034106,0.000111,-0.000094
18.665387,-0.006430,-0.013872,0.002053
18.675397,0.021237,-0.028903,-0.000078
18.685437,0.010579,-0.029947,0.002024
18.695447,-0.007504,-0.017073,0.002035
18.705487,-0.028797,-0.007382,-0.000115
18.715497,-0.026655,-0.005268,0.003106
18.725537,-0.012819,-0.011716,0.002046
18.735547,0.009523,-0.025666,0.000973
18.745587,0.015910,-0.029969,0.003107
18.755597,0.003144,-0.022462,0.005243
18.765637,-0.011742,-0.009599,0.005263
18.775647,-0.021316,-0.001009,0.002073
18.805737,0.034042,-0.026839,0.006376
18.815747,0.012736,-0.021415,0.003139
18.825787,-0.017076,-0.009566,0.002044
18.825787,-0.017076,-0.009566,0.002044
18.835797,-0.020254,-0.003153,0.003134
18.855847,0.020180,-0.026774,0.002066
18.875897,-0.007484,-0.009597,0.002070
18.885937,-0.023484,-0.012734,-0.001193
18.895947,-0.006465,-0.025609,-0.000139
18.905987,-0.004328,-0.021324,-0.004386
18.905987,-0.004328,-0.021324,-0.004386
18.926038,-0.009658,-0.023458,-0.001206
18.946088,-0.011763,-0.014918,0.000965
18.946088,-0.011763,-0.014918,0.000965
18.966138,0.005283,-0.016031,-0.001129
18.976178,0.016961,-0.034234,0.000953
18.986188,0.013768,-0.033161,0.002018
18.996228,0.005277,-0.020318,0.002055
19.016278,-0.016006,-0.007429,0.000989
19.016278,-0.016006,-0.007429,0.000989
19.036328,0.025493,-0.033204,0.003118
19.036328,0.025493,-0.033204,0.003118
19.046338,-0.000086,-0.033121,0.003048
19.056378,-0.014969,-0.020267,0.005204
19.066388,-0.041585,-0.008424,0.003050
19.096478,0.027577,-0.051371,0.004106
19.096478,0.027577,-0.051371,0.004106
19.106488,0.012696,-0.036371,0.004136
19.116528,-0.017099,-0.018109,0.002003
19.126538,-0.042652,-0.010571,0.006241
19.136578,-0.022402,-0.009559,0.004166
19.166638,0.019083,-0.040674,0.006270
19.166638,0.019083,-0.040674,0.006270
19.176678,0.008477,-0.021417,0.006331
19.186688,-0.017090,-0.017062,0.006281
19.196728,-0.017077,-0.010639,0.003107
19.206738,0.027608,-0.041775,0.007356
19.226819,0.016983,-0.026764,0.002057
19.236829,-0.001138,-0.029929,0.006265
19.246869,-0.039471,-0.013760,0.000894
19.256879,-0.024538,-0.009537,0.000955
19.266919,0.013763,-0.034224,0.000944
19.276929,0.032908,-0.048164,-0.000137
19.317029,-0.019272,-0.033054,0.001927
19.317029,-0.019272,-0.033054,0.001927
19.327069,0.027620,-0.032118,-0.002212
19.337079,0.037186,-0.043916,0.002031
19.347119,0.002030,-0.036311,-0.001234
19.367169,-0.021338,-0.008479,0.000969
19.367169,-0.021338,-0.008479,0.000969
19.377179,-0.000068,-0.023484,-0.002248
19.387219,0.025465,-0.043888,0.004136
19.397229,0.011599,-0.045964,0.000883
19.407269,-0.018183,-0.022358,-0.002292
19.417279,-0.038393,-0.009492,0.000917
19.447369,0.004167,-0.035255,-0.000155
19.447369,0.004167,-0.035255,-0.000155
19.457379,0.004195,-0.026727,0.003090
19.467419,-0.003274,-0.030985,0.005185
19.477429,-0.018176,-0.021305,0.000917
19.487469,-0.017111,-0.023459,0.004115
19.517560,0.006322,-0.028875,0.004154
19.517560,0.006322,-0.028875,0.004154
19.527569,0.007375,-0.034223,0.005200
19.537610,0.006327,-0.028890,0.007358
19.547620,0.018049,-0.028923,0.006322
19.557660,0.008448,-0.031018,0.004149
19.577710,-0.007523,-0.026709,0.007330
19.577710,-0.007523,-0.026709,0.007330
19.587720,0.005268,-0.025678,0.006302
19.597760,0.010621,-0.018230,0.008489
19.607784,0.004210,-0.022466,0.005246
19.617824,0.020188,-0.026799,0.007407
19.627834,0.020188,-0.027877,0.009538
19.657924,-0.003238,-0.018175,0.006314
19.657924,-0.003238,-0.018175,0.006314
19.667934,0.021289,-0.012910,0.005339
19.677974,0.021251,-0.026793,0.005273
19.687984,0.008454,-0.029960,0.006291
19.698024,0.007419,-0.017126,0.003144
19.718074,-0.011767,-0.017059,0.002023
19.718074,-0.011767,-0.017059,0.002023
19.728084,0.010587,-0.028894,0.005234
19.738124,0.023366,-0.031056,0.002054
19.748134,0.019097,-0.033178,0.002032
19.758174,0.013781,-0.027816,0.000975
19.768184,0.005272,-0.021381,0.000982
19.798274,0.020166,-0.033192,0.004172
19.798274,0.020166,-0.033192,0.004172
19.808315,0.019115,-0.027849,0.004194
19.818324,-0.005411,-0.030963,0.001975
19.828365,-0.005357,-0.010667,0.001003
19.838375,-0.002197,-0.025639,0.003077
19.868465,-0.020294,-0.017031,0.002000
19.868465,-0.020294,-0.017031,0.002000
19.878475,-0.032001,-0.011659,0.003061
19.888515,-0.024569,-0.020211,-0.000164
19.898525,0.026568,-0.031082,0.005267
19.908565,0.019100,-0.033188,0.004169
19.928615,-0.033041,-0.002044,0.003104
19.928615,-0.033041,-0.002044,0.003104
19.938625,-0.024535,-0.009547,0.003092
19.948665,0.009559,-0.015007,0.005296
19.958675,0.009495,-0.038502,0.005185
19.968715,0.005275,-0.021391,0.003118
19.978725,-0.004269,-0.004278,0.004241
20.008815,0.014835,-0.034247,0.005220
20.008815,0.014835,-0.034247,0.005220
20.018825,0.005247,-0.030997,0.002004
20.028865,-0.027745,-0.014881,0.004126
20.038875,-0.037336,-0.012699,0.000905
20.048915,-0.014985,-0.025602,0.004110
20.068965,-0.010716,-0.023480,0.004132
20.068965,-0.010716,-0.023480,0.004132
20.079006,-0.019259,-0.032016,0.008341
20.089015,-0.007472,-0.004247,-0.000041
20.099056,-0.000053,-0.024608,0.009497
20.109065,0.009508,-0.033157,0.004142
20.119106,0.016999,-0.022507,0.005282
20.149166,-0.004308,-0.020312,0.007369
20.149166,-0.004308,-0.020312,0.007369
20.159206,0.026583,-0.025742,0.005293
20.169216,0.029780,-0.025753,0.005302
20.179256,-0.005390,-0.025643,0.006273
20.189266,-0.017052,-0.002101,0.004216
20.209316,0.009528,-0.024604,0.002046
20.219356,0.029780,-0.024674,0.003170
20.229366,0.018040,-0.029971,0.002045
20.239406,-0.001091,-0.009613,0.001020
20.249416,-0.033051,-0.005242,0.002020
20.259456,-0.007485,-0.009592,0.001002
20.289516,0.002062,-0.026715,0.002016
20.289516,0.002062,-0.026715,0.002016
20.299556,-0.031993,-0.007377,0.000945
20.309566,-0.025580,-0.000990,0.000993
20.319606,0.004196,-0.025654,0.002027
20.329616,0.032938,-0.039641,0.004176
20.349697,-0.001115,-0.019229,0.002042
20.359706,-0.022376,0.001131,0.002080
20.369747,-0.029849,-0.004190,0.003102
20.379756,-0.001130,-0.025647,0.004148
20.389797,0.024446,-0.025720,0.002082
20.399806,0.005265,-0.025668,0.004166
20.439906,-0.008566,-0.014928,0.000974
20.439906,-0.008566,-0.014928,0.000974
20.449947,0.000995,-0.028863,0.005207
20.459957,-0.011741,-0.006369,-0.000063
20.469997,-0.023479,-0.014905,0.006274
20.480007,-0.018143,-0.010636,0.003104
20.490047,-0.017068,-0.007435,0.003122
20.500057,0.004195,-0.028883,0.007352
20.510097,0.006335,-0.023530,0.003111
20.520107,-0.002160,-0.013906,0.006338
20.530147,-0.005387,-0.023497,0.004147
20.540157,-0.003249,-0.019217,0.000968
20.560207,-0.007513,-0.020277,0.002020
20.570247,-0.014965,-0.018127,0.004146
20.580257,-0.019228,-0.018113,0.004134
20.590297,-0.019241,-0.021301,0.000914
20.600307,0.006321,-0.029948,0.005217
20.610366,-0.001145,-0.028831,-0.000140
20.640456,-0.004332,-0.025621,0.000935
20.640456,-0.004332,-0.025621,0.000935
20.650466,0.019120,-0.025713,0.004204
20.660507,-0.001144,-0.030987,0.004123
20.670516,-0.018137,-0.008500,0.003114
20.680557,-0.018139,-0.009573,0.004177
20.700607,0.013797,-0.022482,0.002068
20.700607,0.013797,-0.022482,0.002068
20.710616,0.021221,-0.036394,0.003091
20.720657,0.001021,-0.017095,0.000990
20.730666,-0.018139,-0.009573,0.004177
20.740707,-0.018156,-0.014902,0.002016
20.750717,-0.005395,-0.024550,0.000937
20.770767,0.004192,-0.026717,0.000953
20.770767,0.004192,-0.026717,0.000953
20.780807,-0.013905,-0.019188,0.002007
20.790817,-0.026689,-0.015932,-0.000149
20.800857,-0.013889,-0.012775,0.000969
20.810867,0.012725,-0.023536,-0.000076
20.820907,0.013750,-0.039568,0.001987
20.850967,-0.012832,-0.015982,0.000957
20.850967,-0.012832,-0.015982,0.000957
20.861007,-0.012842,-0.020259,0.002005
20.871017,0.000997,-0.024561,-0.001182
20.881057,0.007389,-0.026727,0.000962
20.891067,-0.003278,-0.030975,0.003049
20.911147,-0.025605,-0.010606,0.002015
20.911147,-0.025605,-0.010606,0.002015
20.921157,-0.008583,-0.022414,0.003075
20.931197,0.003119,-0.031001,0.004135
20.941207,-0.000054,-0.020296,0.000972
20.951248,-0.016054,-0.027745,0.006234
20.961257,-0.013892,-0.013843,0.000964
20.991348,-0.005384,-0.021351,0.002021
20.991348,-0.005384,-0.021351,0.002021
21.001357,-0.002197,-0.025639,0.003077
21.011398,-0.012841,-0.019186,0.000942
21.021407,-0.017095,-0.018125,0.005208
21.031448,-0.007510,-0.019209,0.002025
21.061508,-0.007516,-0.022422,0.004146
21.061508,-0.007516,-0.022422,0.004146
21.071548,0.005275,-0.022469,0.005249
21.081558,0.004180,-0.032067,0.003064
21.091598,-0.007525,-0.024548,0.002000
21.101608,-0.012840,-0.020264,0.003073
21.121658,-0.006457,-0.024557,0.003071
21.131698,-0.000074,-0.028849,0.003068
21.141708,-0.000085,-0.030970,-0.000147
21.151748,-0.006475,-0.030964,0.003040
21.161758,-0.026687,-0.015937,0.000919
21.171798,-0.025632,-0.020218,0.001970
21.201888,0.008449,-0.029945,0.003086
21.201888,0.008449,-0.029945,0.003086
21.211898,-0.002193,-0.023498,0.002019
21.221938,-0.013902,-0.019198,0.004144
21.231948,-0.010721,-0.024543,0.003059
21.241988,-0.007504,-0.017073,0.002035
21.262039,-0.001156,-0.034180,0.001972
21.272048,-0.005374,-0.018153,0.003104
21.282089,-0.010722,-0.024538,0.001991
21.292098,-0.008584,-0.023487,0.004138
21.302139,-0.021344,-0.010615,0.000959
21.312148,0.001014,-0.021382,0.004175
21.342239,-0.012852,-0.024536,0.003053
21.342239,-0.012852,-0.024536,0.003053
21.352248,-0.019235,-0.019165,0.000924
21.362289,-0.011750,-0.010651,0.002054
21.372299,-0.009656,-0.024541,0.001994
21.382339,-0.010730,-0.026669,0.000912
21.402389,-0.007521,-0.022407,0.000941
21.412399,-0.013903,-0.019193,0.003075
21.422439,-0.006444,-0.019212,0.002028
21.432449,-0.001132,-0.023486,-0.001182
21.442489,0.008458,-0.025663,0.000970
21.452499,-0.010735,-0.028804,0.000902
21.482589,-0.016047,-0.022380,0.000918
21.492629,-0.006484,-0.032012,-0.001238
21.502639,-0.004335,-0.025611,-0.001201
21.512679,-0.011788,-0.023456,-0.000144
21.522689,-0.014995,-0.025572,-0.002299
21.532729,-0.020310,-0.021288,-0.001225
21.542739,-0.016056,-0.025583,0.000903
21.552779,-0.011810,-0.030927,-0.001247
21.562789,-0.005411,-0.030963,0.001975
21.572830,-0.010718,-0.023475,0.003064
21.582839,-0.008583,-0.021336,0.000944
21.592880,-0.004343,-0.030971,0.003046
21.612969,-0.001127,-0.024579,0.004153
21.622978,-0.006482,-0.033095,0.001962
21.633019,-0.007512,-0.019204,0.000957
21.643028,0.001008,-0.023518,0.004164
21.653069,-0.011814,-0.034146,0.001942
21.663079,-0.019222,-0.014899,0.002013
21.693169,-0.019225,-0.015967,0.002008
21.703179,-0.010731,-0.027742,0.001976
21.713219,-0.009662,-0.026677,0.001984
21.723229,-0.017107,-0.020240,0.000925
21.733269,-0.024554,-0.014871,-0.000138
21.753319,-0.006449,-0.021353,0.003086
21.753319,-0.006449,-0.021353,0.003086
21.763359,-0.000076,-0.028844,0.002000
21.773369,-0.002184,-0.020294,0.002034
21.783409,-0.010700,-0.017067,0.003094
21.793419,-0.010713,-0.022412,0.004137
21.803459,-0.009631,-0.016003,0.003102
21.823509,-0.003267,-0.026698,0.002001
21.833519,-0.011785,-0.023466,0.001993
21.843559,-0.005380,-0.020288,0.003094
21.853569,-0.008583,-0.021336,0.000944
21.863610,-0.012854,-0.024531,0.001985
21.873619,-0.005387,-0.022419,0.002015
21.893669,-0.009637,-0.018139,0.003092
21.903710,-0.014993,-0.026655,0.000901
21.913719,-0.010734,-0.028810,0.001970
21.923760,-0.000055,-0.021369,0.002035
21.933769,-0.012869,-0.028792,-0.000172
21.943810,-0.004320,-0.022428,0.003087
21.963860,-0.006472,-0.029896,0.003045
21.973870,-0.002203,-0.026696,0.000936
21.983910,-0.002184,-0.021372,0.004166
21.993920,-0.006454,-0.023489,0.003076
22.003960,-0.006450,-0.021348,0.002018
22.013970,-0.005377,-0.020299,0.005230
22.044060,-0.009634,-0.017071,0.003097
22.054100,-0.018168,-0.020252,0.004127
22.064110,-0.007519,-0.023490,0.004141
22.074150,0.005280,-0.020328,0.004191
22.084160,-0.002196,-0.024566,0.002014
22.104210,-0.017092,-0.015979,0.003082
22.114250,-0.021358,-0.017033,0.003065
22.124260,-0.007491,-0.013884,0.005255
22.134300,-0.004335,-0.026689,0.000930
22.144310,-0.011785,-0.023466,0.001993
22.154350,-0.010700,-0.017067,0.003094
22.174401,-0.002185,-0.021367,0.003098
22.184410,-0.007522,-0.024558,0.004136
22.194451,-0.006447,-0.021358,0.004154
22.204460,0.002082,-0.020318,0.004182
22.214501,-0.011785,-0.024544,0.004124
22.224510,-0.019237,-0.021316,0.004119
22.244560,0.002072,-0.023517,0.003099
22.254601,-0.010712,-0.021339,0.003074
22.264610,-0.012863,-0.027735,0.001970
22.274651,-0.006459,-0.023474,-0.000129
22.284661,-0.009642,-0.019202,0.002019
22.294701,-0.017113,-0.022376,0.000915
22.334801,-0.019247,-0.023437,0.000904
22.344841,-0.011782,-0.022399,0.001998
22.354851,0.001000,-0.025649,0.003086
22.364891,-0.002213,-0.030973,0.001984
22.374901,-0.001139,-0.027773,0.002002
22.384941,0.001003,-0.024581,0.003091
22.394951,-0.005390,-0.024565,0.004142
22.404991,-0.007526,-0.025621,0.003063
22.415001,0.004196,-0.026732,0.004158
22.425041,0.006318,-0.031016,0.005212
22.435051,-0.001134,-0.027788,0.005206
22.445091,-0.011777,-0.022414,0.005202
22.455101,-0.014973,-0.021330,0.004131
22.465141,-0.007526,-0.026699,0.005194
22.475151,0.003138,-0.024598,0.005233
22.485192,-0.005399,-0.027769,0.004127
22.495201,-0.018182,-0.025592,0.004102
22.505242,-0.006431,-0.014945,0.003116
22.525292,-0.009663,-0.028828,0.005178
22.535301,-0.008574,-0.020288,0.005221
22.545342,-0.004345,-0.032044,0.004109
22.555351,-0.007514,-0.022428,0.005214
22.565392,-0.008567,-0.017079,0.004168
22.575402,-0.012869,-0.032022,0.005154
22.605496,-0.001142,-0.028841,0.001997
22.615536,-0.010713,-0.022412,0.004137
22.625546,-0.010712,-0.021339,0.003074
22.635586,-0.006469,-0.028828,0.003050
22.645596,0.004189,-0.028863,0.003080
22.655636,-0.010741,-0.032018,0.003023
22.665646,-0.017104,-0.019172,0.000930
22.675686,-0.020302,-0.021313,0.004116
22.685696,-0.018183,-0.024514,0.001970
22.695736,-0.009655,-0.024546,0.003062
22.705746,-0.016067,-0.030933,0.003014
22.715786,-0.018176,-0.021305,0.000917
22.725796,-0.012839,-0.020269,0.004141
22.735836,-0.006456,-0.023484,0.002007
22.745846,-0.012843,-0.021332,0.003068
22.755886,-0.014984,-0.024529,0.003047
22.765896,-0.008590,-0.025623,0.004128
22.775937,-0.000060,-0.023510,0.003093
22.785946,-0.002193,-0.024576,0.004151
22.805996,-0.012842,-0.021337,0.004136
22.805996,-0.012842,-0.021337,0.004136
22.826046,-0.000071,-0.028859,0.005204
22.826046,-0.000071,-0.028859,0.005204
22.846096,-0.009659,-0.026687,0.004120
22.856137,-0.014975,-0.021325,0.003062
22.866177,-0.016029,-0.018128,0.005211
22.866177,-0.016029,-0.018128,0.005211
22.886227,-0.009659,-0.025609,0.001989
22.886227,-0.009659,-0.025609,0.001989
22.896237,-0.006457,-0.024557,0.003071
22.906277,-0.009657,-0.026692,0.005188
22.926327,-0.004321,-0.023501,0.004150
22.946377,-0.004314,-0.021370,0.005228
22.946377,-0.004314,-0.021370,0.005228
22.956387,-0.004337,-0.028835,0.003056
22.966427,-0.000067,-0.026718,0.004146
22.976437,-0.005386,-0.022424,0.003084
22.986477,-0.010712,-0.021339,0.003074
22.996487,-0.014973,-0.021330,0.004131
23.016537,-0.002188,-0.023513,0.005224
23.016537,-0.002188,-0.023513,0.005224
23.026577,-0.010723,-0.025611,0.003054
23.036587,-0.019240,-0.021306,0.001982
23.046627,-0.020283,-0.014911,0.005214
23.056637,-0.011763,-0.017074,0.005228
23.066677,0.005274,-0.023542,0.006312
23.096737,-0.010687,-0.012801,0.004183
23.096737,-0.010687,-0.012801,0.004183
23.106778,-0.009633,-0.017076,0.004165
23.116787,0.002088,-0.018182,0.004193
23.126828,-0.000040,-0.017107,0.004192
23.136837,-0.007486,-0.011743,0.004197
23.156918,-0.007507,-0.018141,0.002030
23.156918,-0.007507,-0.018141,0.002030
23.166928,0.001027,-0.017116,0.005263
23.176968,-0.007507,-0.019219,0.004161
23.186978,-0.012814,-0.010653,0.003119
23.197018,-0.018161,-0.017043,0.003074
23.207028,-0.000055,-0.021369,0.002035
23.237118,-0.014948,-0.012792,0.005239
23.237118,-0.014948,-0.012792,0.005239
23.247128,-0.020300,-0.019167,0.001990
23.257168,0.004192,-0.027795,0.003085
23.267178,-0.003262,-0.024562,0.002011
23.277218,-0.011765,-0.015991,0.002028
23.297268,-0.007509,-0.019214,0.003093
23.307278,0.003139,-0.023525,0.004170
23.317318,-0.004323,-0.024574,0.005213
23.327328,-0.010706,-0.020281,0.005216
23.337368,-0.013911,-0.021324,0.001997
23.347378,-0.001121,-0.022443,0.004164
23.367428,-0.013910,-0.022402,0.004128
23.377468,-0.013903,-0.019193,0.003075
23.387478,-0.014984,-0.024529,0.003047
23.397519,-0.004323,-0.024574,0.005213
23.407528,-0.003258,-0.024572,0.004148
23.417569,-0.019235,-0.020243,0.003056
23.447659,0.003135,-0.025666,0.005228
23.447659,0.003135,-0.025666,0.005228
23.457669,-0.009662,-0.027755,0.004115
23.467709,-0.018156,-0.015980,0.004147
23.477719,-0.019232,-0.020254,0.005192
23.487759,-0.004336,-0.028840,0.004124
23.507809,-0.011783,-0.024550,0.005192
23.517819,-0.022418,-0.015972,0.005204
23.527859,-0.010710,-0.022422,0.006274
23.537869,0.005258,-0.028877,0.005219
23.547909,0.008463,-0.026756,0.006306
23.557919,-0.019238,-0.022389,0.005182
23.577969,-0.004321,-0.024579,0.006281
23.588009,0.010584,-0.029962,0.005229
23.598019,-0.005396,-0.027779,0.006263
23.608080,-0.018154,-0.017063,0.007347
23.618090,-0.021359,-0.018106,0.004128
23.628130,0.002067,-0.027808,0.007352
23.658190,-0.018156,-0.017058,0.006278
23.668230,-0.014966,-0.019200,0.005209
23.678240,0.009521,-0.029969,0.007362
23.688281,0.009518,-0.031036,0.007357
23.698290,-0.013901,-0.020276,0.006275
23.728381,0.016976,-0.031051,0.005241
23.728381,0.016976,-0.031051,0.005241
23.738421,-0.004323,-0.024574,0.005213
23.748431,-0.019223,-0.017050,0.005207
23.758471,-0.009641,-0.021358,0.006282
23.768481,0.013782,-0.031050,0.007369
23.778521,0.012716,-0.029969,0.005234
23.788531,-0.007521,-0.025636,0.006267
23.798571,-0.019222,-0.015977,0.004144
23.808581,-0.004330,-0.027783,0.006266
23.818621,0.012714,-0.031042,0.006298
23.828631,-0.003264,-0.027786,0.006269
23.838671,-0.023494,-0.020245,0.006249
23.858721,0.007388,-0.031035,0.008419
23.858721,0.007388,-0.031035,0.008419
23.868731,0.008453,-0.031033,0.007354
23.878771,-0.018166,-0.021335,0.007326
23.888781,-0.023489,-0.019182,0.007322
23.898821,-0.010714,-0.024563,0.007332
23.908831,0.013782,-0.032128,0.009500
23.928881,-0.014965,-0.021356,0.009472
23.938921,-0.020293,-0.020265,0.008394
23.948931,0.008459,-0.029975,0.009496
23.958971,0.009513,-0.035328,0.011610
23.968981,-0.013902,-0.022427,0.009469
23.979021,-0.026682,-0.019187,0.010518
24.009112,-0.005402,-0.032066,0.009447
24.009112,-0.005402,-0.032066,0.009447
24.019122,-0.025616,-0.018112,0.008389
24.029162,-0.020298,-0.021328,0.007320
24.039172,0.007391,-0.029967,0.008424
24.049212,0.009519,-0.032115,0.009488
24.069262,-0.030938,-0.014886,0.007322
24.069262,-0.030938,-0.014886,0.007322
24.079272,-0.006451,-0.023499,0.005212
24.089312,0.014836,-0.035326,0.007351
24.099322,-0.004325,-0.026720,0.007339
24.109362,-0.026682,-0.017031,0.006255
24.119372,-0.020298,-0.021328,0.007320
24.139422,0.010584,-0.031040,0.007360
24.149462,-0.020305,-0.023459,0.006242
24.159472,-0.022422,-0.018112,0.006262
24.169512,0.001005,-0.026742,0.008422
24.179522,0.009524,-0.028901,0.007367
24.189562,-0.005389,-0.026721,0.008404
24.219622,0.007391,-0.029967,0.008424
24.219622,0.007391,-0.029967,0.008424
24.229662,0.000999,-0.028878,0.008412
24.239672,-0.018166,-0.022413,0.009458
24.249712,-0.022425,-0.020258,0.008388
24.259722,0.005272,-0.026766,0.010570
24.279803,-0.013902,-0.022427,0.009469
24.279803,-0.013902,-0.022427,0.009469
24.289812,-0.020292,-0.019192,0.007331
24.299853,-0.002181,-0.024611,0.011628
24.309863,0.004199,-0.029971,0.011620
24.319903,-0.010699,-0.021380,0.011620
24.329913,-0.021353,-0.019204,0.010532
24.349963,0.008466,-0.028922,0.012705
24.349963,0.008466,-0.028922,0.012705
24.360003,-0.006445,-0.024597,0.011616
24.370013,-0.022418,-0.019201,0.010529
24.380053,-0.013897,-0.020291,0.009480
24.390063,0.008464,-0.029990,0.012700
24.400103,-0.003257,-0.028884,0.012673
24.430163,0.003125,-0.032099,0.010539
24.430163,0.003125,-0.032099,0.010539
24.440203,0.008465,-0.028917,0.011637
24.450213,-0.017103,-0.024563,0.011587
24.460253,-0.022417,-0.018128,0.009466
24.470263,-0.001121,-0.026750,0.011621
24.490313,-0.008576,-0.024590,0.011610
24.500353,-0.019226,-0.020274,0.009465
24.510363,-0.006449,-0.025660,0.010543
24.520403,0.005273,-0.026771,0.011638
24.530413,-0.004328,-0.028866,0.009465
24.540453,-0.017094,-0.020281,0.009471
24.570544,-0.007516,-0.026730,0.011603
24.570544,-0.007516,-0.026730,0.011603
24.580553,-0.024550,-0.019194,0.010523
24.590594,-0.011769,-0.022439,0.010543
24.600604,0.003136,-0.029978,0.013754
24.610655,-0.006455,-0.027796,0.010533
24.630705,-0.016024,-0.019221,0.010547
24.630705,-0.016024,-0.019221,0.010547
24.640715,0.006332,-0.029983,0.012694
24.650755,-0.007522,-0.029944,0.013724
24.660765,-0.021354,-0.020277,0.011595
24.670805,-0.011756,-0.019250,0.013763
24.680815,-0.001124,-0.028896,0.013747
24.710905,-0.013901,-0.023510,0.012669
24.710905,-0.013901,-0.023510,0.012669
24.720915,0.001019,-0.024632,0.013773
24.730955,-0.004304,-0.022478,0.013769
24.740965,-0.016022,-0.020304,0.013746
24.751005,-0.007512,-0.025667,0.012676
24.771055,-0.013898,-0.022442,0.012674
24.781065,-0.020283,-0.020296,0.014803
24.791105,-0.000048,-0.025701,0.014833
24.801115,0.005269,-0.029990,0.014828
24.811155,-0.017092,-0.022442,0.014802
24.821165,-0.021335,-0.013875,0.012694
24.841246,0.001000,-0.031034,0.012675
24.841246,0.001000,-0.031034,0.012675
24.851255,-0.020292,-0.022421,0.012656
24.861296,-0.010694,-0.020317,0.012693
24.871305,0.002073,-0.028907,0.013756
24.881346,-0.008575,-0.024595,0.012679
24.891355,-0.021346,-0.019224,0.014805
24.911406,0.012724,-0.032150,0.014838
24.921446,-0.014959,-0.021376,0.013744
24.931456,-0.018143,-0.016021,0.012693
24.941496,0.007411,-0.026798,0.015917
24.951506,0.006329,-0.031051,0.012689
24.961546,-0.017088,-0.020301,0.013744
24.981596,0.004199,-0.032128,0.015883
24.981596,0.004199,-0.032128,0.015883
24.991606,-0.007529,-0.034230,0.016909
25.001646,-0.014936,-0.011754,0.011653
25.011656,-0.005370,-0.022475,0.013766
25.021696,-0.003263,-0.031020,0.012663
25.031706,-0.010678,-0.016060,0.015918
25.041746,-0.007493,-0.019264,0.013775
25.051756,0.005269,-0.029990,0.014828
25.061796,-0.010693,-0.021400,0.015892
25.071806,-0.018137,-0.014963,0.014834
25.081846,0.002092,-0.022504,0.014854
25.091856,-0.000055,-0.028910,0.015886
25.101896,-0.014953,-0.019240,0.013754
25.111937,-0.007502,-0.024619,0.016954
25.121946,-0.004311,-0.025687,0.014822
25.131987,-0.013884,-0.018176,0.013762
25.141996,-0.013899,-0.024593,0.015868
25.152037,-0.016041,-0.026707,0.012648
25.162046,-0.006416,-0.016069,0.014861
25.172087,-0.004310,-0.025692,0.015890
25.182096,-0.021369,-0.025617,0.011570
25.192137,-0.010678,-0.016060,0.015918
25.202146,-0.005384,-0.028893,0.015872
25.212187,-0.020295,-0.024567,0.014783
25.222197,-0.014940,-0.014973,0.014843
25.232237,-0.012842,-0.027800,0.015856
25.242247,-0.016025,-0.021372,0.013741
25.252287,-0.011738,-0.013921,0.015925
25.262297,-0.013908,-0.027797,0.015853
25.272337,-0.011763,-0.023537,0.016948
25.282347,-0.013887,-0.019243,0.013757
25.292387,-0.011767,-0.024600,0.015874
25.302397,-0.018143,-0.017099,0.014824
25.312437,-0.007485,-0.018211,0.016985
25.322447,-0.007522,-0.031022,0.015856
25.332487,-0.014949,-0.018177,0.014828
25.342497,-0.009607,-0.016079,0.019125
25.352537,-0.016036,-0.026722,0.015852
25.362547,-0.007488,-0.018201,0.014848
25.372587,-0.005366,-0.023563,0.018033
25.382627,-0.012824,-0.021393,0.015887
25.402677,-0.013897,-0.025676,0.019068
25.402677,-0.013897,-0.025676,0.019068
25.412687,-0.016011,-0.017106,0.014830
25.422728,0.005302,-0.020399,0.019146
25.432737,-0.012845,-0.028868,0.015851
25.442778,-0.017080,-0.018170,0.014822
25.452787,-0.007483,-0.019295,0.020184
25.482878,-0.020302,-0.027776,0.015836
25.482878,-0.020302,-0.027776,0.015836
25.492887,-0.010687,-0.019264,0.015903
25.502928,-0.000033,-0.021440,0.016990
25.512938,-0.016057,-0.033120,0.013686
25.522978,-0.008558,-0.020339,0.015903
25.543028,-0.009641,-0.026743,0.015870
25.553038,-0.011758,-0.021396,0.015889
25.563078,-0.002192,-0.032117,0.018002
25.573088,-0.007507,-0.025682,0.015881
25.583128,-0.002156,-0.019307,0.019131
25.593138,-0.014991,-0.035279,0.017951
25.613207,0.003165,-0.024684,0.023393
25.613207,0.003165,-0.024684,0.023393
25.623247,-0.005384,-0.028893,0.015872
25.633257,-0.011762,-0.024615,0.019079
25.643297,-0.003246,-0.028920,0.020150
25.653307,-0.004315,-0.028906,0.018011
25.663347,-0.004287,-0.019300,0.019125
25.683397,-0.009635,-0.025685,0.018011
25.693437,-0.002148,-0.018254,0.022340
25.703447,-0.009645,-0.029962,0.019059
25.713488,-0.010692,-0.023556,0.020155
25.723497,-0.007494,-0.024644,0.022295
25.733538,-0.000042,-0.024643,0.016975
25.763597,-0.006426,-0.021424,0.018041
25.763597,-0.006426,-0.021424,0.018041
25.773638,0.004239,-0.020406,0.021279
25.783647,-0.008587,-0.032096,0.017984
25.793688,-0.012821,-0.021403,0.018023
25.803697,-0.009624,-0.024642,0.023358
25.823748,-0.000035,-0.024664,0.021247
25.833788,-0.014976,-0.031018,0.020108
25.843798,-0.013890,-0.022467,0.018015
25.853838,0.007434,-0.023640,0.025546
25.863848,-0.004340,-0.038523,0.019034
25.873888,-0.010701,-0.027838,0.022271
25.903948,0.003168,-0.023616,0.023398
25.913988,-0.012838,-0.028889,0.020124
25.923998,-0.007505,-0.027843,0.021212
25.934038,-0.005357,-0.022515,0.022311
25.944078,-0.016034,-0.028883,0.021183
25.954088,-0.012823,-0.024627,0.022281
25.964128,-0.003224,-0.022527,0.023385
25.974138,-0.013889,-0.023546,0.020146
25.984178,-0.018134,-0.016051,0.019102
25.994188,-0.005367,-0.025714,0.021228
26.004228,0.006353,-0.025742,0.019124
26.014238,-0.009604,-0.017167,0.023393
26.024279,-0.030918,-0.012796,0.016945
26.034288,-0.011755,-0.021406,0.018026
26.044329,0.008494,-0.024701,0.023407
26.054338,-0.003235,-0.023570,0.018039
26.064379,-0.017071,-0.017123,0.019100
26.074388,-0.016004,-0.016053,0.018039
26.084429,-0.001104,-0.025728,0.021240
26.104479,-0.017086,-0.022462,0.019074
26.114488,-0.008568,-0.025694,0.019083
26.124529,-0.007493,-0.023571,0.021232
26.134539,-0.013903,-0.027812,0.019058
26.144579,-0.008577,-0.028897,0.019067
26.154589,-0.006439,-0.028925,0.023346
26.164629,-0.010700,-0.025687,0.019077
26.174639,0.003149,-0.030019,0.022299
26.184679,-0.005394,-0.034247,0.019051
26.194689,-0.011762,-0.026771,0.023342
26.204729,-0.019211,-0.020319,0.019079
26.214739,-0.010720,-0.034240,0.021173
26.224779,-0.000056,-0.033217,0.023343
26.254869,-0.013891,-0.024619,0.021209
26.264879,0.003152,-0.031107,0.026567
26.274919,-0.001113,-0.028932,0.021224
26.284929,-0.005347,-0.019317,0.023395
26.294969,-0.017092,-0.027827,0.024390
26.304979,-0.012815,-0.021423,0.022296
26.315019,0.011706,-0.020450,0.025573
26.325029,-0.007519,-0.033183,0.021187
26.335070,-0.012804,-0.018225,0.023379
26.345079,-0.004282,-0.020393,0.024461
26.355120,-0.010695,-0.024624,0.020150
26.365129,-0.003211,-0.017183,0.022342
26.375170,-0.012829,-0.027841,0.024402
26.385179,-0.014945,-0.019265,0.019095
26.395220,-0.001088,-0.020393,0.022333
26.405229,-0.014973,-0.028872,0.017982
26.415270,-0.012819,-0.022486,0.021222
26.425280,-0.002174,-0.027865,0.022295
26.435320,-0.004309,-0.027848,0.020152
26.455370,-0.007502,-0.026775,0.021217
26.465380,0.004228,-0.025755,0.023391
26.475420,-0.008566,-0.025699,0.020151
26.485430,-0.002182,-0.029996,0.021216
26.495470,-0.003239,-0.026789,0.021229
26.505510,-0.002154,-0.019312,0.020199
26.525560,-0.013873,-0.017133,0.019108
26.535570,0.005294,-0.025759,0.023393
26.545610,-0.008580,-0.028887,0.016931
26.555620,-0.004266,-0.012902,0.021291
26.565660,-0.019227,-0.026732,0.020116
26.575670,-0.006425,-0.021429,0.019109
26.585710,0.014914,-0.015106,0.022402
26.595720,-0.006454,-0.032108,0.019058
26.595720,-0.006454,-0.032108,0.019058
26.615780,0.012766,-0.022589,0.025566
26.625821,0.001013,-0.029997,0.019089
26.625821,0.001013,-0.029997,0.019089
26.645871,-0.001114,-0.030005,0.022287
26.665921,0.002093,-0.024660,0.019117
26.665921,0.002093,-0.024660,0.019117
26.685971,-0.004312,-0.027838,0.018016
26.695980,0.001027,-0.025735,0.021245
26.706021,-0.021377,-0.030977,0.015818
26.716030,-0.012828,-0.023534,0.016945
26.726071,-0.006469,-0.035292,0.014770
26.746121,-0.009629,-0.023549,0.018022
26.756131,-0.013930,-0.034189,0.012618
26.766171,0.006334,-0.032145,0.018025
26.766171,0.006334,-0.032145,0.018025
26.776211,-0.003235,-0.022492,0.015908
26.796261,-0.001121,-0.027828,0.013752
26.816311,-0.011774,-0.024580,0.011602
26.816311,-0.011774,-0.024580,0.011602
26.826321,-0.003245,-0.025691,0.014824
26.846371,-0.012858,-0.032057,0.012631
26.856411,-0.006446,-0.025670,0.012679
26.866421,-0.010729,-0.029903,0.007306
26.876461,-0.010703,-0.023521,0.012678
26.886471,-0.016047,-0.026687,0.008375
26.896511,-0.019230,-0.020259,0.006260
26.906521,-0.005377,-0.023528,0.010556
26.916561,-0.023536,-0.036269,0.007241
26.926571,-0.012832,-0.017060,0.003088
26.946621,-0.016058,-0.027729,0.003029
26.966671,-0.002197,-0.027795,0.007340
26.976712,0.004205,-0.022450,0.002042
26.986721,0.006351,-0.021425,0.009530
26.996762,-0.009673,-0.029876,0.000900
27.006771,0.005268,-0.024600,0.004171
27.016812,0.014860,-0.024631,0.004197
27.046872,0.002056,-0.028851,0.002006
27.056912,0.002051,-0.028836,-0.001199
27.066952,0.001004,-0.021352,-0.002235
27.076962,-0.016068,-0.027699,-0.003380
27.087002,-0.009673,-0.026642,-0.005494
27.107052,-0.009675,-0.025559,-0.008693
27.107052,-0.009675,-0.025559,-0.008693
27.117062,0.002053,-0.024534,-0.007588
27.127102,-0.005449,-0.039461,-0.007679
27.137112,-0.007541,-0.022342,-0.012945
27.147152,0.005257,-0.023486,-0.005438
27.157162,-0.003323,-0.039447,-0.011946
27.177212,0.002013,-0.037334,-0.010853
27.187252,-0.004377,-0.030865,-0.019386
27.197262,0.010539,-0.037361,-0.010830
27.207302,-0.008656,-0.039420,-0.014097
27.217312,-0.001166,-0.027687,-0.016157
27.227352,0.008411,-0.037365,-0.008699
27.247403,-0.001188,-0.037313,-0.012998
27.247403,-0.001188,-0.037313,-0.012998
27.257412,-0.000135,-0.040505,-0.016215
27.267453,0.007372,-0.022365,-0.018245
27.277462,0.005219,-0.031984,-0.015092
27.287503,-0.008646,-0.031909,-0.021539
27.297512,0.007369,-0.023433,-0.018250
27.327603,0.004167,-0.023407,-0.021463
27.327603,0.004167,-0.023407,-0.021463
27.337643,-0.010786,-0.032955,-0.024755
27.347653,0.002052,-0.014836,-0.025702
27.357693,0.009485,-0.025545,-0.024664
27.367703,-0.009717,-0.029734,-0.029009
27.387753,0.007328,-0.031920,-0.030041
27.397793,0.008398,-0.028705,-0.033227
27.407803,0.006274,-0.027645,-0.030023
27.417843,-0.011860,-0.029692,-0.036492
27.427853,0.000937,-0.027603,-0.035379
27.437893,0.013715,-0.031916,-0.035364
27.457943,0.010523,-0.028692,-0.037494
27.467953,-0.006552,-0.035029,-0.040776
27.477993,0.006262,-0.025454,-0.041763
27.488003,0.020100,-0.031906,-0.041756
27.498043,0.007276,-0.042529,-0.045046
27.508053,0.007319,-0.026505,-0.046038
27.538144,0.019021,-0.035091,-0.044978
27.538144,0.019021,-0.035091,-0.044978
27.548153,-0.010830,-0.034969,-0.050401
27.558194,-0.006539,-0.023221,-0.053539
27.568203,0.006238,-0.029685,-0.050329
27.578244,0.000911,-0.026444,-0.054601
27.598294,-0.004440,-0.033897,-0.055720
27.608379,0.003041,-0.026445,-0.055664
27.618389,0.014749,-0.032896,-0.054594
27.628429,-0.006562,-0.028535,-0.058905
27.638439,0.009445,-0.023262,-0.055631
27.648479,0.008320,-0.043539,-0.057866
27.668529,0.007288,-0.030716,-0.058877
27.678539,-0.002333,-0.037057,-0.066411
27.688579,0.010492,-0.024283,-0.066315
27.698589,0.001945,-0.031731,-0.066374
27.708629,0.000868,-0.031692,-0.073854
27.718639,0.019014,-0.026452,-0.065234
27.738689,-0.005516,-0.026322,-0.075983
27.748729,0.001920,-0.034884,-0.077071
27.758739,0.011537,-0.020992,-0.085524
27.768779,0.020053,-0.028525,-0.079127
27.778789,-0.003429,-0.038035,-0.084578
27.788829,0.001952,-0.017752,-0.086604
27.818889,0.021119,-0.025300,-0.084450
27.828929,0.000840,-0.031606,-0.092014
27.838939,0.008311,-0.026276,-0.095172
27.848980,0.022155,-0.033826,-0.088760
27.858989,0.007234,-0.027315,-0.100521
27.879039,0.011488,-0.032683,-0.097330
27.879039,0.011488,-0.032683,-0.097330
27.889080,0.014701,-0.025203,-0.100491
27.899120,0.006163,-0.030525,-0.098403
27.909130,0.007229,-0.025143,-0.107989
27.919170,0.029591,-0.037004,-0.099437
27.929180,0.010404,-0.033702,-0.106952
27.949230,0.000809,-0.034739,-0.106983
27.959270,0.007238,-0.018711,-0.113299
27.969280,0.025320,-0.035887,-0.106921
27.979320,0.018912,-0.036903,-0.113353
27.989330,0.024267,-0.029460,-0.110098
27.999370,0.008263,-0.032587,-0.115498
28.029430,0.023191,-0.028349,-0.118642
28.029430,0.023191,-0.028349,-0.118642
28.039470,0.022128,-0.028355,-0.116508
28.049480,0.010410,-0.024025,-0.120793
28.059520,0.023188,-0.027260,-0.122909
28.069530,0.029565,-0.035845,-0.118660
28.099620,0.015710,-0.029337,-0.130417
28.109630,0.023166,-0.031502,-0.129339
28.119670,0.012510,-0.030394,-0.130431
28.129680,0.015683,-0.036792,-0.134726
28.139720,0.001827,-0.034591,-0.139026
28.149730,0.016795,-0.017552,-0.138904
28.159771,0.017811,-0.035711,-0.138987
28.169811,0.013550,-0.032473,-0.143257
28.179821,0.024222,-0.028241,-0.142139
28.189861,0.015674,-0.032454,-0.148592
28.199871,0.016750,-0.030337,-0.145374
28.209911,0.024209,-0.027122,-0.152816
28.239971,0.018891,-0.022833,-0.152810
28.239971,0.018891,-0.022833,-0.152810
28.250011,0.025250,-0.036742,-0.151790
28.260021,0.012465,-0.031330,-0.158209
28.270061,0.030605,-0.024992,-0.155993
28.280071,0.024167,-0.037761,-0.161412
28.300121,0.023114,-0.033491,-0.160327
28.300121,0.023114,-0.033491,-0.160327
28.310161,0.025235,-0.035618,-0.163535
28.320171,0.027348,-0.044184,-0.160365
28.330211,0.016697,-0.038784,-0.165710
28.340221,0.026296,-0.036685,-0.164606
28.350261,0.018816,-0.041985,-0.167856
28.380321,0.002829,-0.035470,-0.179620
28.390361,0.022020,-0.035552,-0.175294
28.400371,0.021988,-0.047300,-0.175350
28.410411,0.014540,-0.039775,-0.180676
28.420421,0.026264,-0.041969,-0.176381
28.450512,0.026249,-0.044074,-0.182800
28.450512,0.026249,-0.044074,-0.182800
28.460552,0.025188,-0.039779,-0.187056
28.470562,0.036914,-0.039822,-0.185955
28.480602,0.017698,-0.049356,-0.189258
28.490612,0.025185,-0.038691,-0.191324
28.510662,0.026244,-0.038674,-0.195593
28.510662,0.026244,-0.038674,-0.195593
28.520702,0.027301,-0.041881,-0.195606
28.530712,0.021966,-0.042922,-0.197762
28.540752,0.025170,-0.036489,-0.205200
28.550762,0.025144,-0.047178,-0.203114
28.560802,0.017694,-0.040726,-0.207377
28.570812,0.010235,-0.039629,-0.208461
28.580852,0.016634,-0.036431,-0.211633
28.590862,0.031531,-0.043945,-0.213763
28.600902,0.010204,-0.048147,-0.213842
28.610913,0.025168,-0.028943,-0.220119
28.620953,0.022979,-0.050299,-0.219158
28.630963,0.028314,-0.046025,-0.223396
28.651013,0.028303,-0.047067,-0.228742
28.661053,0.037917,-0.038550,-0.229743
28.671063,0.035778,-0.041752,-0.228696
28.681103,0.030441,-0.040631,-0.236183
28.691113,0.028287,-0.048095,-0.237293
28.701153,0.030425,-0.042737,-0.242603
28.721203,0.018685,-0.046955,-0.245860
28.731244,0.035735,-0.047001,-0.247949
28.741253,0.027206,-0.049119,-0.245846
28.751294,0.015494,-0.039424,-0.255447
28.761304,0.035707,-0.053378,-0.254389
28.771344,0.041030,-0.053375,-0.258647
28.801404,0.039968,-0.049074,-0.263970
28.811444,0.045295,-0.046930,-0.269287
28.821454,0.052742,-0.052299,-0.268223
28.831494,0.052746,-0.049080,-0.271413
28.841504,0.062347,-0.045908,-0.271371
28.871594,0.066581,-0.055523,-0.273541
28.871594,0.066581,-0.055523,-0.273541
28.881604,0.058033,-0.058659,-0.282125
28.891644,0.060181,-0.055487,-0.276763
28.901654,0.049508,-0.059714,-0.278949
28.911694,0.053817,-0.042636,-0.279925
28.921704,0.043122,-0.054333,-0.283214
28.931744,0.042045,-0.055372,-0.288563
28.941754,0.064429,-0.055450,-0.287434
28.951794,0.053755,-0.061828,-0.286425
28.961804,0.037793,-0.050009,-0.290686
28.971844,0.029280,-0.045714,-0.289621
28.981854,0.045270,-0.042542,-0.293835
28.991894,0.054820,-0.058598,-0.292816
29.001935,0.056932,-0.065007,-0.293909
29.011944,0.048423,-0.056416,-0.298165
29.021985,0.044187,-0.046795,-0.297063
29.031994,0.047370,-0.051067,-0.299210
29.042035,0.047377,-0.048937,-0.298132
29.052044,0.056974,-0.046827,-0.299164
29.082135,0.051616,-0.054260,-0.304555
29.082135,0.051616,-0.054260,-0.304555
29.092145,0.044150,-0.055293,-0.306717
29.102185,0.038844,-0.046733,-0.306691
29.112195,0.042019,-0.053135,-0.309917
29.122235,0.049471,-0.058520,-0.305649
29.142285,0.047359,-0.051032,-0.306688
29.152295,0.037770,-0.046704,-0.312035
29.162335,0.037766,-0.048845,-0.310977
29.172345,0.049474,-0.055295,-0.309907
29.182385,0.050547,-0.051012,-0.313088
29.192395,0.052677,-0.052092,-0.312019
29.222485,0.063334,-0.051049,-0.314121
29.222485,0.063334,-0.051049,-0.314121
29.232495,0.085711,-0.054335,-0.311938
29.242535,0.059058,-0.055301,-0.315221
29.252545,0.068662,-0.051061,-0.315175
29.262585,0.087811,-0.065016,-0.313051
29.272626,0.072900,-0.058535,-0.318403
29.282635,0.071849,-0.054270,-0.316249
29.292676,0.068632,-0.058506,-0.321619
29.302685,0.071811,-0.067075,-0.318446
29.312726,0.077144,-0.063873,-0.321621
29.322735,0.077141,-0.064941,-0.321626
29.332776,0.075015,-0.062798,-0.321622
29.352826,0.089931,-0.062832,-0.324786
29.362836,0.078192,-0.065977,-0.329106
29.372876,0.082466,-0.063870,-0.325879
29.382886,0.095238,-0.068163,-0.330137
29.392926,0.079242,-0.071315,-0.330196
29.402936,0.081417,-0.054225,-0.332246
29.422986,0.084579,-0.065973,-0.334429
29.433026,0.086734,-0.057436,-0.334383
29.443036,0.095225,-0.070279,-0.334420
29.453076,0.085659,-0.058480,-0.338664
29.463086,0.076070,-0.058459,-0.336554
29.473126,0.079252,-0.061653,-0.340833
29.493176,0.097359,-0.065984,-0.340803
29.503186,0.088850,-0.059549,-0.340796
29.513226,0.075005,-0.055227,-0.341882
29.523236,0.076077,-0.053094,-0.341869
29.533276,0.089916,-0.059552,-0.340793
29.543316,0.082455,-0.058450,-0.342945
29.563367,0.086711,-0.061672,-0.341880
29.573376,0.086738,-0.052061,-0.341835
29.583417,0.087799,-0.054205,-0.340774
29.593426,0.087784,-0.057389,-0.345062
29.603467,0.090976,-0.060613,-0.342932
29.613502,0.079262,-0.056298,-0.344012
29.633552,0.086711,-0.061672,-0.341880
29.643593,0.072851,-0.061612,-0.345123
29.653602,0.085661,-0.054178,-0.345052
29.663643,0.073919,-0.059470,-0.347246
29.673653,0.072877,-0.050923,-0.347209
29.683694,0.078174,-0.062687,-0.347250
29.693703,0.090959,-0.063792,-0.348288
29.703743,0.086707,-0.059506,-0.348279
29.713753,0.068568,-0.066923,-0.348365
29.723793,0.083517,-0.056287,-0.349341
29.733803,0.074966,-0.066954,-0.346211
29.743843,0.080311,-0.057324,-0.353628
29.753854,0.101605,-0.068098,-0.348279
29.773903,0.079270,-0.048782,-0.352522
29.783943,0.082435,-0.061618,-0.350438
29.793953,0.078179,-0.057317,-0.353634
29.803993,0.094165,-0.058442,-0.352527
29.814033,0.085612,-0.066948,-0.354727
29.824044,0.070723,-0.055152,-0.354712
29.834083,0.072879,-0.045543,-0.355729
29.844093,0.084563,-0.059459,-0.356831
29.854133,0.092037,-0.055216,-0.355722
29.864143,0.089917,-0.050938,-0.355708
29.874184,0.082458,-0.049841,-0.356791
29.884193,0.086754,-0.039185,-0.354592
29.894235,0.082483,-0.041302,-0.355682
29.914284,0.099518,-0.048843,-0.353535
29.924293,0.082485,-0.038078,-0.359940
29.934334,0.085691,-0.039192,-0.352459
29.944343,0.097392,-0.044544,-0.357793
29.954384,0.106988,-0.045664,-0.353499
29.964394,0.103795,-0.043512,-0.354566
29.974434,0.086755,-0.038112,-0.355656
29.984444,0.095274,-0.040271,-0.356710
29.994484,0.110183,-0.043513,-0.358821
30.004494,0.090998,-0.042372,-0.361005
30.014534,0.072878,-0.042309,-0.362123
30.024544,0.064328,-0.048668,-0.366450
30.034584,0.065392,-0.049745,-0.365384
30.054634,0.069638,-0.055088,-0.367534
30.064644,0.056848,-0.055046,-0.367569
30.074684,0.045115,-0.054978,-0.374010
30.084694,0.067516,-0.050804,-0.368587
30.094734,0.064277,-0.063589,-0.372930
30.104775,0.056823,-0.061429,-0.372940
30.124824,0.056815,-0.064638,-0.371887
30.134834,0.064286,-0.059307,-0.375046
30.144874,0.074937,-0.063629,-0.371832
30.154884,0.067464,-0.065720,-0.376136
30.164924,0.068546,-0.061467,-0.372908
30.174934,0.066433,-0.056130,-0.370752
30.184975,0.058961,-0.057149,-0.376119
30.194984,0.074950,-0.059362,-0.370744
30.205025,0.057893,-0.060369,-0.371864
30.215034,0.073864,-0.066834,-0.370782
30.225075,0.082401,-0.063663,-0.369675
30.235084,0.048333,-0.048591,-0.371835
30.245125,0.034476,-0.049619,-0.370809
30.265175,0.069627,-0.057209,-0.370748
30.275185,0.062130,-0.072151,-0.367635
30.285226,0.041919,-0.056051,-0.370819
30.295235,0.023841,-0.043192,-0.367604
30.305275,0.024900,-0.044253,-0.369742
30.315285,0.049384,-0.055012,-0.369726
30.335335,0.067484,-0.062552,-0.368643
30.345375,0.061131,-0.049736,-0.364327
30.355386,0.031333,-0.030391,-0.369659
30.365425,0.049417,-0.044343,-0.367539
30.375465,0.089881,-0.058363,-0.366425
30.385475,0.095213,-0.057312,-0.366405
30.395515,0.082441,-0.051941,-0.364279
30.405525,0.069673,-0.042273,-0.367473
30.415565,0.078219,-0.036976,-0.364220
30.425576,0.089930,-0.040208,-0.366339
30.435615,0.089903,-0.050892,-0.365321
30.445625,0.089904,-0.049819,-0.366384
30.455665,0.098469,-0.037042,-0.364164
30.465675,0.077142,-0.039093,-0.367437
30.475716,0.084644,-0.024167,-0.367346
30.485725,0.106983,-0.039185,-0.368423
30.495767,0.110151,-0.050953,-0.366334
30.505775,0.093138,-0.034863,-0.369509
30.515816,0.082486,-0.033771,-0.367397
30.525825,0.066510,-0.027291,-0.371684
30.545875,0.095246,-0.043414,-0.369544
30.555916,0.098453,-0.036991,-0.374846
30.555916,0.098453,-0.036991,-0.374846
30.575966,0.058002,-0.018705,-0.374871
30.585976,0.063327,-0.021941,-0.371667
30.585976,0.063327,-0.021941,-0.371667
30.596016,0.091004,-0.032695,-0.374846
30.626107,0.089966,-0.023086,-0.373735
30.626107,0.089966,-0.023086,-0.373735
30.636147,0.087825,-0.028434,-0.370562
30.656197,0.100611,-0.029543,-0.370532
30.656197,0.100611,-0.029543,-0.370532
30.666237,0.096314,-0.041271,-0.371667
30.686287,0.101658,-0.035949,-0.371627
30.696297,0.070751,-0.032619,-0.377038
30.696297,0.070751,-0.032619,-0.377038
30.716347,0.064348,-0.034729,-0.378134
30.716347,0.064348,-0.034729,-0.378134
30.726387,0.079254,-0.037961,-0.382381
30.736397,0.071775,-0.047574,-0.377106
30.756447,0.040905,-0.032512,-0.379257
30.766487,0.029165,-0.036731,-0.382514
30.776497,0.054753,-0.033610,-0.382428
30.796547,0.062173,-0.049663,-0.380347
30.796547,0.062173,-0.049663,-0.380347
30.806588,0.054758,-0.033625,-0.379223
30.826638,0.040880,-0.038895,-0.384628
30.826638,0.040880,-0.038895,-0.384628
30.836647,0.082446,-0.045493,-0.372794
30.846688,0.090937,-0.057258,-0.374962
30.856697,0.073928,-0.042261,-0.372802
30.866738,0.051576,-0.032588,-0.370682
30.876747,0.056897,-0.034736,-0.371745
30.906838,0.078156,-0.059398,-0.365394
30.906838,0.078156,-0.059398,-0.365394
30.916878,0.066439,-0.056151,-0.366479
30.926888,0.052613,-0.047582,-0.362204
30.936928,0.053669,-0.050785,-0.363284
30.946938,0.067490,-0.062572,-0.364370
30.966988,0.057891,-0.064671,-0.365475
30.966988,0.057891,-0.064671,-0.365475
30.977028,0.056867,-0.048644,-0.366470
30.997078,0.022789,-0.037849,-0.367581
30.997078,0.022789,-0.037849,-0.367581
31.007088,0.050456,-0.053958,-0.367581
31.017128,0.064259,-0.072147,-0.369766
31.047188,0.050467,-0.050759,-0.366498
31.047188,0.050467,-0.050759,-0.366498
31.057228,0.054721,-0.052899,-0.368633
31.067238,0.066426,-0.057188,-0.372893
31.077278,0.100521,-0.063727,-0.368557
31.087288,0.074942,-0.063644,-0.368628
31.117379,0.060020,-0.060361,-0.375063
31.117379,0.060020,-0.060361,-0.375063
31.127388,0.072821,-0.057209,-0.372876
31.137429,0.062149,-0.059285,-0.378256
31.147438,0.054706,-0.052853,-0.378246
31.157479,0.051522,-0.048576,-0.377167
31.177529,0.052593,-0.047517,-0.376091
31.177529,0.052593,-0.047517,-0.376091
31.187538,0.044036,-0.059241,-0.375101
31.197579,0.052568,-0.058211,-0.372937
31.207619,0.044067,-0.049645,-0.371851
31.217629,0.049403,-0.047532,-0.370758
31.227669,0.055765,-0.062529,-0.365471
31.257729,0.066434,-0.061521,-0.360095
31.257729,0.066434,-0.061521,-0.360095
31.267769,0.065385,-0.057261,-0.356873
31.277779,0.071775,-0.060500,-0.353666
31.287819,0.084543,-0.068012,-0.354735
31.297829,0.089897,-0.061647,-0.349349
31.327919,0.096308,-0.056334,-0.348238
31.327919,0.096308,-0.056334,-0.348238
31.337929,0.090957,-0.067016,-0.344030
31.347969,0.067525,-0.059449,-0.347264
31.357979,0.076073,-0.052006,-0.346137
31.368019,0.072845,-0.061592,-0.349396
31.398079,0.086699,-0.064866,-0.344032
31.398079,0.086699,-0.064866,-0.344032
31.408120,0.060087,-0.049803,-0.349375
31.418129,0.068617,-0.050919,-0.345084
31.428170,0.085647,-0.056289,-0.350404
31.438179,0.076051,-0.060555,-0.345109
31.448220,0.070744,-0.050911,-0.348283
31.458229,0.078202,-0.053081,-0.346136
31.468270,0.073936,-0.054135,-0.346153
31.478310,0.067566,-0.045576,-0.345062
31.488320,0.063287,-0.050897,-0.346167
31.498360,0.078193,-0.057363,-0.344020
31.508370,0.074999,-0.055207,-0.346155
31.528420,0.044116,-0.046568,-0.345131
31.528420,0.044116,-0.046568,-0.345131
31.538460,0.055835,-0.048747,-0.344041
31.548470,0.060091,-0.051969,-0.342976
31.558510,0.049442,-0.049809,-0.340859
31.568520,0.042008,-0.039095,-0.342965
31.578560,0.038795,-0.047654,-0.337674
31.608620,0.050519,-0.048770,-0.335510
31.608620,0.050519,-0.048770,-0.335510
31.618667,0.030282,-0.045516,-0.332346
31.628677,0.048399,-0.045569,-0.333364
31.638717,0.067570,-0.054205,-0.326943
31.648727,0.059032,-0.058449,-0.326987
31.668777,0.052674,-0.046697,-0.323744
31.668777,0.052674,-0.046697,-0.323744
31.678817,0.059052,-0.055281,-0.319494
31.688827,0.048407,-0.050980,-0.318435
31.698868,0.045214,-0.049907,-0.317371
31.708877,0.046287,-0.047779,-0.316289
31.718918,0.054798,-0.055298,-0.313097
31.749008,0.034576,-0.044547,-0.314170
31.749008,0.034576,-0.044547,-0.314170
31.759018,0.040956,-0.052064,-0.309915
31.769058,0.053734,-0.055299,-0.312031
31.779068,0.053755,-0.049980,-0.307733
31.789108,0.045226,-0.051020,-0.307762
31.809158,0.044172,-0.047823,-0.305613
31.809158,0.044172,-0.047823,-0.305613
31.819168,0.052700,-0.047856,-0.304522
31.829208,0.053748,-0.054267,-0.304549
31.839218,0.046307,-0.048918,-0.301340
31.849258,0.060189,-0.040430,-0.299125
31.859268,0.058031,-0.051112,-0.297045
31.889358,0.067634,-0.049023,-0.293804
31.889358,0.067634,-0.049023,-0.293804
31.899368,0.072971,-0.050143,-0.286317
31.909408,0.060205,-0.040480,-0.288443
31.919418,0.059139,-0.042633,-0.284183
31.929458,0.072986,-0.045882,-0.284160
31.949508,0.068731,-0.044815,-0.280962
31.949508,0.068731,-0.044815,-0.280962
31.959518,0.055956,-0.040512,-0.278841
31.969558,0.046383,-0.034078,-0.277769
31.979568,0.057025,-0.041604,-0.274570
31.989608,0.056999,-0.051215,-0.274616
31.999618,0.057027,-0.042687,-0.271371
32.019699,0.045301,-0.044795,-0.269276
32.019699,0.045301,-0.044795,-0.269276
32.029709,0.051716,-0.038418,-0.267092
32.039749,0.061287,-0.048076,-0.263907
32.049759,0.062348,-0.049142,-0.264977
32.059799,0.067694,-0.047059,-0.257475
32.069809,0.052787,-0.039515,-0.261753
32.089859,0.051719,-0.041657,-0.259630
32.099899,0.065558,-0.048115,-0.258554
32.109909,0.051706,-0.048080,-0.256456
32.119949,0.032554,-0.036270,-0.256453
32.129959,0.032568,-0.030931,-0.256428
32.139999,0.042130,-0.043792,-0.253257
32.170059,0.036809,-0.041644,-0.252194
32.180099,0.030429,-0.037362,-0.250055
32.190109,0.031508,-0.034177,-0.246832
32.200149,0.027229,-0.039497,-0.247937
32.210159,0.027231,-0.040580,-0.244738
32.230209,0.034685,-0.047048,-0.237270
32.230209,0.034685,-0.047048,-0.237270
32.240249,0.028331,-0.030998,-0.239348
32.250259,0.029378,-0.039560,-0.236181
32.260299,0.049625,-0.040694,-0.236131
32.270309,0.058146,-0.045013,-0.231855
32.280349,0.046427,-0.044990,-0.228682
32.310440,0.040066,-0.034306,-0.225445
32.310440,0.040066,-0.034306,-0.225445
32.320450,0.058156,-0.046122,-0.223314
32.330490,0.044321,-0.038601,-0.223317
32.340500,0.028359,-0.030011,-0.222252
32.350540,0.041145,-0.033271,-0.219027
32.370590,0.056061,-0.037612,-0.214734
32.370590,0.056061,-0.037612,-0.214734
32.380600,0.047516,-0.042914,-0.216919
32.390640,0.045413,-0.034378,-0.213680
32.400650,0.037966,-0.030088,-0.212612
32.410690,0.039017,-0.036509,-0.210503
32.420700,0.046487,-0.033329,-0.210467
32.440750,0.035813,-0.040785,-0.207327
32.440750,0.035813,-0.040785,-0.207327
32.450790,0.020934,-0.024713,-0.208361
32.460800,0.031598,-0.023690,-0.206190
32.470840,0.030515,-0.030094,-0.206223
32.480850,0.041170,-0.031196,-0.206199
32.490890,0.046504,-0.031229,-0.202980
32.520950,0.038016,-0.019474,-0.198675
32.530990,0.036930,-0.026946,-0.198713
32.541000,0.039066,-0.025890,-0.197634
32.551040,0.034800,-0.026944,-0.197651
32.561081,0.032675,-0.028036,-0.191253
32.571090,0.031616,-0.023745,-0.194440
32.581131,0.037989,-0.033393,-0.191263
32.591140,0.035892,-0.023800,-0.185883
32.601181,0.043336,-0.030236,-0.184824
32.611193,0.041190,-0.036647,-0.182724
32.621233,0.040155,-0.025970,-0.181608
32.631243,0.038013,-0.032390,-0.177372
32.661333,0.032681,-0.034519,-0.175260
32.661333,0.032681,-0.034519,-0.175260
32.671343,0.034825,-0.033488,-0.168840
32.681383,0.023089,-0.036644,-0.171024
32.691393,0.026315,-0.027048,-0.169901
32.701433,0.023085,-0.039863,-0.167834
32.731493,0.028431,-0.035624,-0.164595
32.731493,0.028431,-0.035624,-0.164595
32.741533,0.024160,-0.038819,-0.163554
32.751543,0.026307,-0.033486,-0.163522
32.761583,0.036952,-0.039943,-0.160319
32.771593,0.044403,-0.042093,-0.162445
32.791643,0.023120,-0.031355,-0.160316
32.791643,0.023120,-0.031355,-0.160316
32.801683,0.033776,-0.034614,-0.156030
32.811693,0.029504,-0.038882,-0.153925
32.821733,0.027380,-0.032437,-0.160310
32.831774,0.025235,-0.041004,-0.153947
32.841783,0.028451,-0.032455,-0.157102
32.861833,0.007160,-0.024926,-0.153921
32.871874,0.018868,-0.031377,-0.152851
32.881883,0.030593,-0.034649,-0.146425
32.891924,0.027406,-0.028211,-0.150676
32.901933,0.016742,-0.033541,-0.145389
32.911974,0.016773,-0.022867,-0.144271
32.932024,0.013561,-0.030352,-0.140042
32.942034,0.019971,-0.025033,-0.139999
32.952074,0.027429,-0.028281,-0.135721
32.962084,0.013583,-0.023960,-0.136807
32.972124,0.014658,-0.020759,-0.136789
32.982134,0.033840,-0.025124,-0.130347
33.002184,0.012517,-0.028263,-0.129353
33.012224,0.017856,-0.024004,-0.130386
33.022234,0.027435,-0.029380,-0.129317
33.032274,0.029574,-0.027256,-0.128233
33.042284,0.014639,-0.033625,-0.126168
33.052324,0.015719,-0.028289,-0.126140
33.062334,0.021041,-0.031515,-0.125072
33.072374,0.024233,-0.033661,-0.125073
33.082384,0.026372,-0.033694,-0.119726
33.092424,0.013582,-0.031496,-0.124024
33.102434,0.009338,-0.026158,-0.120806
33.112474,0.013600,-0.028322,-0.117600
33.122515,0.019966,-0.037944,-0.119764
33.152574,0.010409,-0.027254,-0.115467
33.152574,0.010409,-0.027254,-0.115467
33.162615,0.022145,-0.023021,-0.115415
33.172624,0.024262,-0.028367,-0.115434
33.182665,0.022139,-0.025156,-0.115425
33.192674,0.007219,-0.025113,-0.114398
33.212725,0.018944,-0.027307,-0.110103
33.222765,0.007250,-0.015517,-0.111148
33.232775,0.014712,-0.017697,-0.106864
33.242815,0.022152,-0.026275,-0.104748
33.252825,0.013641,-0.018757,-0.107941
33.262865,0.011510,-0.020906,-0.103684
33.282915,0.021116,-0.017748,-0.100438
33.282915,0.021116,-0.017748,-0.100438
33.292925,0.023236,-0.020949,-0.102583
33.302965,0.022184,-0.018835,-0.097235
33.312975,0.020072,-0.010274,-0.099337
33.323015,0.025374,-0.023132,-0.094042
33.333025,0.016847,-0.020948,-0.098328
33.353075,0.009406,-0.015600,-0.095119
33.363115,0.017925,-0.019914,-0.091911
33.373125,0.018985,-0.025283,-0.086592
33.383165,0.005149,-0.014528,-0.092989
33.393205,0.019023,-0.012478,-0.084395
33.403215,0.004063,-0.024156,-0.088765
33.423265,0.028589,-0.022120,-0.084414
33.423265,0.028589,-0.022120,-0.084414
33.433306,0.005126,-0.025228,-0.088767
33.443315,0.014738,-0.021012,-0.083379
33.453356,0.016834,-0.032756,-0.085566
33.463365,0.020043,-0.029573,-0.083405
33.473406,0.017928,-0.025310,-0.080186
33.493456,0.009403,-0.023131,-0.083404
33.503465,0.008314,-0.031671,-0.083447
33.513506,0.014706,-0.032760,-0.083435
33.523516,0.008342,-0.023143,-0.080202
33.533556,-0.010846,-0.021992,-0.084523
33.543566,0.009387,-0.030622,-0.080235
33.563616,0.004057,-0.030599,-0.081318
33.573656,-0.005516,-0.024166,-0.080246
33.583666,0.000862,-0.029521,-0.081321
33.593706,0.022180,-0.030673,-0.078063
33.603716,0.017910,-0.033868,-0.077022
33.613780,0.002996,-0.030611,-0.078116
33.643840,0.000884,-0.026358,-0.072761
33.643840,0.000884,-0.026358,-0.072761
33.653881,0.008355,-0.023183,-0.071657
33.663920,0.006210,-0.028521,-0.070620
