time_tick,gyr_X_value,gyr_Y_value,gyr_Z_value
-0.002509,0.019122,-0.024640,0.003141
0.007531,-0.018174,-0.021310,0.001985
0.017541,-0.004320,-0.022428,0.003087
0.027581,-0.008578,-0.019200,0.000954
0.037591,-0.001123,-0.022438,0.003095
0.047631,-0.003257,-0.023499,0.003084
0.057671,-0.014982,-0.023456,0.001984
0.067681,0.001002,-0.024576,0.002023
0.077721,-0.014971,-0.019184,0.002004
0.087731,0.005272,-0.022459,0.003113
0.097771,-0.010718,-0.023475,0.003064
0.107781,-0.009658,-0.024536,0.000925
0.117821,-0.007512,-0.019204,0.000957
0.127831,-0.008583,-0.021336,0.000944
0.137872,0.004202,-0.023518,0.002037
0.147881,-0.013908,-0.021334,0.004133
0.157922,-0.002194,-0.024571,0.003082
0.167962,-0.013909,-0.020251,0.000934
0.177972,-0.000051,-0.020306,0.003108
0.188012,-0.004322,-0.022423,0.002018
0.198022,-0.010716,-0.022402,0.002001
0.208062,-0.002187,-0.021362,0.002029
0.218072,-0.006450,-0.020270,-0.000114
0.228112,0.004205,-0.022450,0.002042
0.238118,-0.017114,-0.023449,0.001978
0.248158,-0.002191,-0.023503,0.003087
0.258198,-0.010708,-0.019198,0.002016
0.268208,-0.002186,-0.020289,0.000966
0.278248,-0.002184,-0.020294,0.002034
0.288258,-0.010713,-0.021334,0.002006
0.298298,-0.006457,-0.024557,0.003071
0.308308,-0.014980,-0.021310,-0.000142
0.318348,0.002075,-0.022449,0.003104
0.328358,-0.008587,-0.024555,0.004133
0.338399,-0.011779,-0.022409,0.004134
0.348408,-0.005387,-0.022419,0.002015
0.358449,-0.007514,-0.021349,0.003083
0.368489,-0.000055,-0.021369,0.002035
0.378499,-0.010727,-0.025601,0.000917
0.388539,-0.008586,-0.023482,0.003070
0.398549,-0.006444,-0.019212,0.002028
0.408589,-0.001124,-0.022433,0.002027
0.418599,-0.005393,-0.024555,0.002005
0.428639,-0.014978,-0.022393,0.003057
0.438649,0.001002,-0.025654,0.004154
0.448689,-0.013905,-0.019188,0.002007
0.458699,0.007402,-0.022461,0.002051
0.468739,-0.016048,-0.023453,0.001981
0.478779,-0.006454,-0.023489,0.003076
0.488789,-0.010710,-0.020266,0.002011
0.498829,-0.006453,-0.022416,0.002013
0.508839,0.002075,-0.022449,0.003104
0.518879,-0.009642,-0.019202,0.002019
0.528889,-0.004324,-0.023491,0.002013
0.538930,-0.010712,-0.020261,0.000943
0.548939,-0.002187,-0.021362,0.002029
0.558980,-0.005390,-0.024565,0.004142
0.569020,-0.009648,-0.021338,0.002009
0.579030,-0.005384,-0.021351,0.002021
0.589070,-0.006443,-0.018139,0.000965
0.599080,0.003139,-0.022447,0.002039
0.609120,-0.014979,-0.022388,0.001989
0.629170,-0.011772,-0.018122,0.000950
0.639180,-0.001117,-0.020302,0.003106
0.649220,-0.004317,-0.021360,0.003092
0.659230,-0.014981,-0.023461,0.003052
0.669270,-0.005394,-0.025628,0.003068
0.679310,-0.012842,-0.020259,0.002005
0.689320,0.003141,-0.022452,0.003107
0.699360,-0.010716,-0.022402,0.002001
0.709370,-0.007516,-0.022422,0.004146
0.729420,-0.009645,-0.020270,0.002014
0.729420,-0.009645,-0.020270,0.002014
0.739461,-0.001123,-0.021360,0.000964
0.749470,-0.009644,-0.021348,0.004145
0.759511,-0.006459,-0.025630,0.004134
0.769551,-0.013897,-0.017057,0.003086
0.779561,-0.001117,-0.020302,0.003106
0.789601,-0.009653,-0.023473,0.001999
0.799611,-0.011779,-0.021331,0.002003
0.809651,0.003139,-0.022447,0.002039
0.819661,-0.012835,-0.017050,0.000952
0.829701,0.003151,-0.019253,0.004190
0.839711,-0.025607,-0.015986,0.010536
0.849751,0.009538,-0.020327,0.000998
0.859761,-0.000057,-0.022442,0.003098
0.869801,-0.027766,-0.020201,-0.000172
0.879841,-0.005387,-0.023497,0.004147
0.889851,0.012699,-0.033147,-0.000122
0.899891,-0.024543,-0.013829,0.005208
0.909901,-0.021370,-0.019148,-0.001218
0.929951,-0.030962,-0.019117,-0.001244
0.939992,0.006337,-0.023535,0.004179
0.950001,-0.010703,-0.017057,0.000958
0.960042,0.002079,-0.021386,0.004177
0.970082,-0.009660,-0.024531,-0.000143
0.980092,-0.001128,-0.024574,0.003085
0.990132,-0.012838,-0.018118,0.000947
1.000142,-0.002180,-0.019231,0.003108
1.010182,-0.011775,-0.019190,0.000945
1.020192,-0.004325,-0.022413,-0.000118
1.030232,-0.001125,-0.023506,0.003090
1.040242,-0.004311,-0.019224,0.003102
1.050282,-0.013899,-0.017052,0.002017
1.060292,0.003139,-0.022447,0.002039
1.070332,-0.008583,-0.022414,0.003075
1.080372,-0.002182,-0.020299,0.003103
1.090382,-0.006448,-0.019202,-0.000109
1.100422,-0.008573,-0.019215,0.004158
1.110432,0.001005,-0.023508,0.002028
1.120473,-0.018177,-0.022378,0.001980
1.130482,0.005265,-0.025668,0.004166
1.140523,-0.017104,-0.019172,0.000930
1.150532,0.005268,-0.024600,0.004171
1.160573,-0.019246,-0.022364,-0.000159
1.170613,-0.008582,-0.021341,0.002012
1.180623,-0.006444,-0.019212,0.002028
1.190663,-0.013908,-0.020256,0.002002
1.200673,-0.000055,-0.021369,0.002035
1.210713,-0.017098,-0.018115,0.003072
1.220723,0.002069,-0.023506,0.000963
1.230763,-0.018165,-0.018106,0.002001
1.240808,-0.000055,-0.021369,0.002035
1.250848,-0.011782,-0.022399,0.001998
1.260858,-0.009642,-0.019202,0.002019
1.270898,-0.004313,-0.019219,0.002034
1.280938,-0.012845,-0.021327,0.002000
1.290948,-0.001125,-0.023506,0.003090
1.300988,-0.009653,-0.023473,0.001999
1.310998,-0.002188,-0.022435,0.003092
1.321039,-0.012844,-0.020254,0.000937
1.331048,-0.001125,-0.023506,0.003090
1.341089,-0.012857,-0.025599,0.001980
1.351098,-0.003251,-0.022441,0.005226
1.361139,-0.004312,-0.020297,0.004165
1.371179,-0.013906,-0.019183,0.000939
1.381189,0.002068,-0.025657,0.004157
1.391229,-0.017113,-0.022376,0.000915
1.401239,0.004214,-0.020325,0.004188
1.411279,-0.013908,-0.020256,0.002002
1.421289,-0.006447,-0.020280,0.002023
1.431329,-0.002188,-0.022435,0.003092
1.441339,-0.014975,-0.020247,0.000931
1.451379,-0.003250,-0.020290,0.002031
1.461389,-0.010710,-0.020266,0.002011
1.471429,-0.001126,-0.022428,0.000959
1.481469,-0.003257,-0.022421,0.000953
1.491479,-0.008577,-0.020278,0.003085
1.501519,-0.001120,-0.020292,0.000969
1.511529,-0.010715,-0.021329,0.000938
1.521570,-0.005389,-0.022414,0.000947
1.531579,-0.005395,-0.024550,0.000937
1.541620,-0.004317,-0.021360,0.003092
1.551629,-0.009650,-0.022405,0.002004
1.561670,-0.004326,-0.023486,0.000945
1.571710,-0.009652,-0.022400,0.000936
1.581720,-0.004316,-0.020287,0.002029
1.591760,-0.004314,-0.020292,0.003097
1.601770,-0.006459,-0.024552,0.002002
1.611810,-0.006452,-0.022421,0.003081
1.621820,-0.010704,-0.019208,0.004152
1.631860,-0.003248,-0.020295,0.003100
1.641870,-0.013908,-0.020256,0.002002
1.651910,-0.005389,-0.023492,0.003079
1.661920,-0.009649,-0.022411,0.003072
1.671960,-0.009646,-0.021343,0.003077
1.682000,-0.007517,-0.022417,0.003078
1.692010,-0.012832,-0.017060,0.003088
1.702050,-0.003253,-0.021358,0.002026
1.712060,-0.016039,-0.020249,0.001996
1.722101,-0.001123,-0.022438,0.003095
1.732110,-0.009642,-0.018124,-0.000112
1.742151,-0.002185,-0.021367,0.003098
1.752160,-0.004324,-0.023491,0.002013
1.762201,-0.012836,-0.018123,0.002015
1.772241,-0.000048,-0.020316,0.005245
1.782251,-0.012847,-0.021322,0.000932
1.792291,-0.002188,-0.022435,0.003092
1.802301,-0.010719,-0.023470,0.001996
1.812341,-0.001124,-0.022433,0.002027
1.822351,-0.007509,-0.019214,0.003093
1.832391,-0.007513,-0.019198,-0.000112
1.842401,-0.003257,-0.023499,0.003084
1.852441,-0.011785,-0.023466,0.001993
1.862451,-0.005383,-0.020278,0.000957
1.872491,-0.012844,-0.020254,0.000937
1.882531,-0.001128,-0.024574,0.003085
1.892541,-0.013915,-0.022387,0.000924
1.902581,0.003147,-0.020316,0.003117
1.912591,-0.007518,-0.021339,0.000946
1.922632,-0.010715,-0.021329,0.000938
1.932641,0.001005,-0.023508,0.002028
1.942682,-0.013914,-0.022392,0.001992
1.952691,0.003141,-0.022452,0.003107
1.962732,-0.009636,-0.017066,0.002029
1.972741,-0.002184,-0.020294,0.002034
1.982782,-0.010719,-0.023470,0.001996
1.992822,-0.007516,-0.021344,0.002015
2.002832,-0.005381,-0.020283,0.002026
2.012872,-0.011775,-0.019190,0.000945
2.022882,-0.004322,-0.022423,0.002018
2.032922,-0.012839,-0.019191,0.002010
2.042932,-0.002177,-0.018163,0.003113
2.052972,-0.010713,-0.021334,0.002006
2.062982,-0.008585,-0.022409,0.002007
2.073022,-0.009650,-0.022405,0.002004
2.083062,-0.008580,-0.021346,0.003080
2.093072,-0.005381,-0.021361,0.004157
2.103112,-0.010706,-0.019203,0.003084
2.113122,-0.003256,-0.022426,0.002021
2.123163,-0.014974,-0.020252,0.001999
2.133172,-0.005383,-0.021356,0.003089
2.143213,-0.009640,-0.019207,0.003087
2.153222,-0.008579,-0.020273,0.002017
2.163263,-0.000057,-0.022442,0.003098
2.173272,-0.014974,-0.019174,-0.000132
2.183313,-0.001121,-0.021365,0.002032
2.193353,-0.013905,-0.019188,0.002007
2.203363,-0.005392,-0.023482,0.000942
2.213403,-0.008591,-0.024545,0.001997
2.223413,-0.007511,-0.020282,0.003088
2.233483,-0.001121,-0.021365,0.002032
2.243493,-0.019233,-0.018098,0.000929
2.253533,0.002070,-0.023511,0.002031
2.263543,-0.018168,-0.019174,0.001996
2.273583,0.006344,-0.020327,0.003126
2.283623,-0.013900,-0.018125,0.003080
2.293633,0.001009,-0.021367,0.000970
2.303674,-0.010719,-0.022392,-0.000136
2.313683,-0.006446,-0.020285,0.003091
2.323724,-0.004313,-0.019219,0.002034
2.333733,-0.011769,-0.017054,0.000955
2.343774,0.003135,-0.024588,0.003097
2.353783,-0.014972,-0.019179,0.000936
2.363824,0.001021,-0.018173,0.003121
2.373833,-0.009642,-0.019202,0.002019
2.383874,-0.011779,-0.020253,-0.000128
2.393914,-0.008582,-0.021341,0.002012
2.403924,-0.008580,-0.021346,0.003080
2.413964,-0.002184,-0.021372,0.004166
2.423974,-0.006446,-0.019207,0.000960
2.434014,-0.004317,-0.021360,0.003092
2.444024,-0.012855,-0.024526,0.000917
2.454064,-0.005384,-0.021351,0.002021
2.464074,-0.006455,-0.022411,0.000944
2.474114,-0.009646,-0.020265,0.000946
2.484154,-0.004319,-0.021355,0.002023
2.494164,-0.016039,-0.020249,0.001996
2.494164,-0.016039,-0.020249,0.001996
2.504205,-0.000048,-0.019238,0.003114
2.524255,-0.011778,-0.021336,0.003071
2.524255,-0.011778,-0.021336,0.003071
2.534264,-0.011787,-0.023461,0.000925
2.544305,-0.009636,-0.018144,0.004160
2.554314,0.004212,-0.019242,0.000989
2.564355,-0.011775,-0.020268,0.003076
2.584405,-0.018168,-0.019174,0.001996
2.584405,-0.018168,-0.019174,0.001996
2.594445,0.010612,-0.019278,0.004211
2.614495,-0.002194,-0.024571,0.003082
2.624505,-0.017103,-0.018099,-0.000133
2.624505,-0.017103,-0.018099,-0.000133
2.634545,0.002092,-0.016041,0.003135
2.644555,0.004215,-0.018174,0.000994
2.654595,-0.012852,-0.024536,0.003053
2.664605,-0.016041,-0.020244,0.000928
2.684685,0.001003,-0.023503,0.000960
2.684685,0.001003,-0.023503,0.000960
2.694695,-0.018171,-0.021320,0.004122
2.704736,-0.017100,-0.017031,-0.000128
2.724786,-0.007518,-0.021339,0.000946
2.724786,-0.007518,-0.021339,0.000946
2.734795,-0.009650,-0.022405,0.002004
2.754845,0.009542,-0.018186,-0.000060
2.754845,0.009542,-0.018186,-0.000060
2.764886,-0.007519,-0.022412,0.002010
2.774895,-0.021366,-0.018086,-0.000145
2.784936,-0.004316,-0.020287,0.002029
2.794976,-0.001105,-0.016031,0.003126
2.804986,-0.001124,-0.022433,0.002027
2.825036,0.010607,-0.019262,0.001006
2.825036,0.010607,-0.019262,0.001006
2.835076,-0.011775,-0.020268,0.003076
2.845086,-0.008582,-0.021341,0.002012
2.855126,-0.010702,-0.017062,0.002026
2.865136,-0.005377,-0.018143,0.000968
2.875176,-0.002185,-0.021367,0.003098
2.895226,0.005278,-0.019245,0.000992
2.895226,0.005278,-0.019245,0.000992
2.905267,-0.011763,-0.015996,0.003096
2.925317,0.008477,-0.019261,0.002069
2.925317,0.008477,-0.019261,0.002069
2.935326,-0.019227,-0.015962,0.000940
2.945367,-0.005377,-0.019221,0.003099
2.965417,-0.012836,-0.018123,0.002015
2.965417,-0.012836,-0.018123,0.002015
2.975426,-0.008580,-0.020268,0.000949
2.985467,-0.014960,-0.015986,0.003088
2.995507,-0.006449,-0.020275,0.000954
3.005517,-0.004316,-0.020287,0.002029
3.015557,-0.016023,-0.013836,0.000958
3.025567,0.013807,-0.018205,0.001020
3.035607,-0.017096,-0.017042,0.002009
3.045617,-0.016031,-0.017045,0.002011
3.055657,0.011667,-0.021402,0.000999
3.065667,-0.016028,-0.015977,0.002017
3.075707,-0.009647,-0.019186,-0.001186
3.085717,0.001012,-0.021377,0.003106
3.105798,-0.001123,-0.021360,0.000964
3.105798,-0.001123,-0.021360,0.000964
3.125848,-0.012835,-0.017050,0.000952
3.125848,-0.012835,-0.017050,0.000952
3.135857,-0.003254,-0.021353,0.000958
3.145898,-0.013896,-0.017062,0.004154
3.155907,-0.000054,-0.020296,0.000972
3.175957,-0.022426,-0.015946,-0.000137
3.175957,-0.022426,-0.015946,-0.000137
3.185998,0.008462,-0.023522,-0.000088
3.196038,-0.010709,-0.019193,0.000948
3.206048,-0.017101,-0.017026,-0.001196
3.216088,0.015926,-0.023556,0.002069
3.226098,-0.022427,-0.018097,0.003057
3.246157,0.011660,-0.024611,0.002052
3.246157,0.011660,-0.024611,0.002052
3.256197,-0.022433,-0.020233,0.003047
3.266207,-0.008578,-0.019200,0.000954
3.276247,0.006328,-0.025661,0.002033
3.286257,-0.021361,-0.018101,0.003060
3.296297,-0.007522,-0.022402,-0.000127
3.316347,-0.020288,-0.015973,0.004141
3.316347,-0.020288,-0.015973,0.004141
3.326388,-0.001126,-0.022428,0.000959
3.336397,-0.013908,-0.020256,0.002002
3.346438,-0.008573,-0.019215,0.004158
3.356447,-0.004319,-0.021355,0.002023
3.366488,-0.017098,-0.018115,0.003072
3.386538,-0.010721,-0.023465,0.000928
3.386538,-0.010721,-0.023465,0.000928
3.396578,-0.019218,-0.013836,0.003086
3.406588,0.005283,-0.019260,0.004196
3.426638,-0.023490,-0.015948,0.000928
3.426638,-0.023490,-0.015948,0.000928
3.436678,0.014864,-0.022490,0.003139
3.456728,-0.013896,-0.014906,-0.000109
3.456728,-0.013896,-0.014906,-0.000109
3.466738,0.009532,-0.022463,0.000988
3.476778,-0.018172,-0.021315,0.003054
3.486788,-0.011768,-0.015981,-0.000108
3.496828,0.008469,-0.021391,0.000990
3.506869,-0.017099,-0.018109,0.002003
3.516878,-0.011771,-0.017049,-0.000113
3.526919,0.010604,-0.020330,0.001001
3.536928,-0.017088,-0.013838,0.002024
3.546969,-0.007512,-0.018125,-0.001175
3.556978,0.001011,-0.019221,-0.001156
3.567019,-0.010688,-0.012796,0.003115
3.577028,-0.017097,-0.015964,-0.000123
3.597109,-0.013890,-0.014926,0.004164
3.607119,-0.019201,-0.009579,0.006311
3.617159,0.003134,-0.022432,-0.001166
3.627169,-0.011763,-0.015996,0.003096
3.637209,-0.019215,-0.010612,-0.001172
3.647219,0.009547,-0.017123,0.001014
3.657259,-0.013892,-0.014921,0.003096
3.667269,-0.007491,-0.010650,-0.001139
3.677309,0.002095,-0.014973,0.003140
3.687319,-0.023472,-0.009540,0.000958
3.697359,0.014892,-0.011806,0.002122
3.707400,-0.014951,-0.013860,0.005234
3.717409,-0.021331,-0.005270,-0.000084
3.737459,-0.017089,-0.013833,0.000956
3.747500,-0.009619,-0.008502,-0.002203
3.757509,-0.004276,-0.007487,0.005294
3.767550,-0.028802,-0.006289,-0.005450
3.777559,0.002105,-0.009618,-0.000040
3.787600,-0.020264,-0.007430,0.004182
3.807650,-0.017058,-0.004237,0.004206
3.807650,-0.017058,-0.004237,0.004206
3.817690,-0.003230,-0.008503,-0.006458
3.827700,-0.021316,-0.001009,0.002073
3.837740,-0.005350,-0.006380,-0.002181
3.847750,-0.015999,-0.003142,-0.002196
3.857790,-0.014924,0.000059,-0.002177
3.877840,-0.018121,-0.001009,-0.000055
3.887850,-0.004287,-0.007452,-0.002184
3.897890,-0.021332,-0.006343,0.000979
3.907931,-0.000024,-0.006387,-0.004303
3.917940,-0.024525,-0.005270,0.002044
3.927981,0.004232,-0.008532,-0.005370
3.958040,-0.038388,-0.007356,0.000927
3.958040,-0.038388,-0.007356,0.000927
3.968081,0.019158,-0.009674,0.000007
3.978090,-0.040518,-0.007354,0.001990
3.988131,0.019158,-0.009674,0.000007
3.998141,-0.038383,-0.006293,0.002001
4.018221,-0.014952,-0.010626,-0.001160
4.028231,-0.015993,-0.002084,-0.000054
4.038271,0.004223,-0.012814,-0.003254
4.048281,-0.024543,-0.010600,-0.000118
4.058321,0.002084,-0.014938,-0.004338
4.068331,-0.020265,-0.003118,-0.004344
4.088381,-0.060770,-0.006205,-0.001266
4.088381,-0.060770,-0.006205,-0.001266
4.098421,0.037221,-0.024638,-0.009628
4.108462,-0.043712,-0.005198,-0.000145
4.118471,0.015908,-0.023501,-0.009681
4.128512,-0.018147,-0.009547,-0.001164
4.138521,0.008466,-0.015996,-0.010734
4.158571,0.021243,-0.021382,-0.009656
4.168612,-0.038389,-0.006273,-0.002272
4.178621,0.039350,-0.025713,-0.009627
4.188662,-0.038401,-0.010545,-0.002292
4.198672,0.021239,-0.023523,-0.008598
4.208712,-0.020287,-0.011666,-0.003316
4.228762,-0.022428,-0.013785,-0.005468
4.228762,-0.022428,-0.013785,-0.005468
4.238823,0.014850,-0.020288,-0.010737
4.248833,-0.033082,-0.011610,-0.006556
4.258873,0.026557,-0.024583,-0.013930
4.268883,-0.040533,-0.009460,-0.004430
4.278923,0.020163,-0.023489,-0.015010
4.309014,-0.030968,-0.018024,-0.006580
4.309014,-0.030968,-0.018024,-0.006580
4.319023,0.016954,-0.025595,-0.019302
4.329064,-0.028827,-0.014827,-0.006559
4.339073,0.013758,-0.024511,-0.020374
4.349114,-0.019244,-0.018062,-0.006548
4.369164,-0.023525,-0.022300,-0.010853
4.369164,-0.023525,-0.022300,-0.010853
4.379173,0.015894,-0.024533,-0.017164
4.389214,-0.027788,-0.021208,-0.012996
4.399224,0.026547,-0.025631,-0.018207
4.409264,-0.035233,-0.014771,-0.014054
4.419304,0.029723,-0.035268,-0.015040
4.449364,-0.024585,-0.021238,-0.008714
4.449364,-0.024585,-0.021238,-0.008714
4.459404,0.010554,-0.026637,-0.020393
4.469414,-0.037472,-0.053204,-0.015310
4.479454,-0.001112,-0.007391,-0.017129
4.489464,-0.024619,-0.025439,-0.023689
4.509545,0.034045,-0.015001,-0.012795
4.519554,-0.072613,-0.038104,-0.022813
4.529595,0.032866,-0.051262,-0.022584
4.539604,-0.025593,0.004436,-0.017141
4.549645,0.003000,-0.058630,-0.024838
4.559654,-0.021422,-0.030835,-0.014092
4.579704,-0.021444,-0.038305,-0.015195
4.589745,-0.001189,-0.031923,-0.023655
4.599755,-0.028864,-0.020096,-0.021539
4.609795,-0.001190,-0.034074,-0.020461
4.619835,-0.021428,-0.026508,-0.025822
4.629845,-0.007569,-0.027641,-0.021516
4.659935,-0.033138,-0.021125,-0.026897
4.669945,-0.000129,-0.032984,-0.025794
4.679985,-0.027821,-0.024336,-0.029034
4.689995,-0.004384,-0.027611,-0.030053
4.700035,-0.007587,-0.030814,-0.027940
4.720085,0.009462,-0.029781,-0.032161
4.730126,-0.022502,-0.025401,-0.033297
4.740135,0.003064,-0.027594,-0.038578
4.750176,-0.008648,-0.026519,-0.032196
4.760185,-0.022510,-0.025375,-0.038638
4.770226,0.007320,-0.030817,-0.037513
4.790276,0.003053,-0.027559,-0.046055
4.800286,-0.007591,-0.026492,-0.038602
4.810326,-0.027853,-0.025313,-0.048266
4.820366,0.007317,-0.027578,-0.044975
4.830376,-0.018256,-0.025359,-0.045035
4.840416,-0.001225,-0.029656,-0.051418
4.860466,-0.018266,-0.024250,-0.053576
4.870476,0.017960,-0.029718,-0.051365
4.880516,-0.018255,-0.024286,-0.046099
4.890526,0.003032,-0.028571,-0.057810
4.900566,0.012641,-0.027580,-0.048165
4.910576,-0.008681,-0.026412,-0.054628
4.930657,0.000913,-0.027527,-0.051402
4.930657,0.000913,-0.027527,-0.051402
4.940666,-0.002294,-0.027486,-0.057820
4.950707,0.020073,-0.033976,-0.055652
4.960716,0.007275,-0.038217,-0.053571
4.970757,-0.001233,-0.027474,-0.061022
4.980766,0.029661,-0.035070,-0.056699
5.010857,0.025393,-0.035041,-0.059916
5.020897,-0.012972,-0.031698,-0.063210
5.030907,0.012592,-0.034964,-0.067428
5.040947,0.010472,-0.033915,-0.062088
5.050957,-0.020423,-0.025241,-0.068542
5.060997,0.029638,-0.037151,-0.068459
5.071007,-0.002317,-0.032800,-0.063186
5.081047,-0.012971,-0.027391,-0.070668
5.091057,0.027528,-0.028595,-0.069493
5.101097,-0.005513,-0.029561,-0.068521
5.111107,-0.002333,-0.032750,-0.073868
5.121147,0.027520,-0.029648,-0.072703
5.141197,-0.000207,-0.033814,-0.076004
5.151238,0.023249,-0.031765,-0.073793
5.161247,-0.009785,-0.027366,-0.078136
5.171288,-0.000210,-0.033804,-0.078140
5.181297,0.017905,-0.033853,-0.080227
5.191338,-0.002336,-0.031662,-0.078136
5.221428,-0.011931,-0.028391,-0.085624
5.221428,-0.011931,-0.028391,-0.085624
5.231438,0.013644,-0.029537,-0.086627
5.241502,0.006182,-0.029508,-0.087716
5.251512,-0.005557,-0.033731,-0.089905
5.261552,0.006174,-0.030561,-0.090926
5.271562,0.011501,-0.030573,-0.091979
5.281602,-0.004502,-0.035855,-0.093117
5.291612,0.011486,-0.034834,-0.094136
5.301652,0.015760,-0.030571,-0.095172
5.311662,0.004015,-0.035853,-0.099502
5.321702,0.019980,-0.044453,-0.098431
5.331743,0.004005,-0.039052,-0.100586
5.361802,-0.003469,-0.040065,-0.107020
5.361802,-0.003469,-0.040065,-0.107020
5.371843,0.016777,-0.042272,-0.105907
5.381853,0.010376,-0.042231,-0.110197
5.391893,0.027426,-0.042276,-0.112287
5.401903,0.007173,-0.043278,-0.112347
5.421953,0.015699,-0.041150,-0.116587
5.431993,0.016769,-0.039012,-0.117642
5.442033,0.034893,-0.035857,-0.119713
5.452043,0.017836,-0.037943,-0.118702
5.462083,0.025295,-0.037962,-0.119750
5.472093,0.039147,-0.037997,-0.121848
5.492143,0.017823,-0.037902,-0.127247
5.502183,0.047670,-0.039092,-0.121829
5.512193,0.012503,-0.034681,-0.127247
5.522233,0.035941,-0.037961,-0.127198
5.532274,0.023171,-0.030439,-0.128266
5.542283,0.033824,-0.030458,-0.131441
5.562333,0.032759,-0.028304,-0.134638
5.572374,0.032777,-0.022974,-0.132477
5.582384,0.039140,-0.034742,-0.132515
5.592424,0.029570,-0.022934,-0.138895
5.602434,0.030636,-0.022937,-0.138892
5.612474,0.027428,-0.026125,-0.139984
5.632524,0.031692,-0.023988,-0.143166
5.642564,0.029565,-0.021840,-0.144230
5.652574,0.018912,-0.017514,-0.148512
5.662614,0.031692,-0.020754,-0.149560
5.672624,0.027427,-0.019657,-0.152772
5.682664,0.024231,-0.018574,-0.153844
5.702714,0.025293,-0.018567,-0.155977
5.712724,0.033806,-0.021783,-0.159173
5.722764,0.018907,-0.014264,-0.158111
5.732805,0.039114,-0.026042,-0.165588
5.742814,0.019957,-0.017451,-0.162396
5.752855,0.029537,-0.018520,-0.168784
5.762864,0.041239,-0.026029,-0.169855
5.772905,0.013551,-0.016317,-0.172022
5.782915,0.030581,-0.021687,-0.177341
5.792955,0.026314,-0.023814,-0.176295
5.802965,0.019919,-0.022715,-0.178444
5.813005,0.032693,-0.025940,-0.182697
5.823015,0.017787,-0.021630,-0.180581
5.833055,0.019916,-0.019476,-0.185906
5.843095,0.030570,-0.022730,-0.182688
5.853105,0.009241,-0.024771,-0.188097
5.863145,0.034822,-0.022708,-0.190153
5.873155,0.015647,-0.020520,-0.188059
5.883195,0.026281,-0.025864,-0.194465
5.893205,0.040142,-0.023773,-0.194416
5.903245,0.009233,-0.025824,-0.191307
5.913255,0.035871,-0.024812,-0.197638
5.923295,0.042262,-0.029130,-0.192299
5.933336,0.012418,-0.026872,-0.197712
5.943345,0.053969,-0.031268,-0.199755
5.953386,0.037983,-0.029065,-0.202993
5.963395,0.028385,-0.031170,-0.203030
5.983446,0.042240,-0.029059,-0.207254
5.993486,0.046488,-0.034412,-0.207268
6.003496,0.052875,-0.035486,-0.210460
6.013536,0.058214,-0.030148,-0.213624
6.023546,0.025180,-0.034368,-0.201985
6.033586,0.052871,-0.032242,-0.218990
6.053636,0.036878,-0.031091,-0.225438
6.063676,0.063507,-0.036512,-0.226458
6.073686,0.042210,-0.030041,-0.225418
6.083726,0.054985,-0.031115,-0.232866
6.093736,0.056042,-0.035400,-0.230747
6.103776,0.053902,-0.036441,-0.235030
6.133836,0.073081,-0.035410,-0.240314
6.133836,0.073081,-0.035410,-0.240314
6.153917,0.060298,-0.031081,-0.243533
6.153917,0.060298,-0.031081,-0.243533
6.173967,0.053902,-0.032134,-0.242487
6.183977,0.078412,-0.032203,-0.244556
6.183977,0.078412,-0.032203,-0.244556
6.194017,0.053909,-0.028925,-0.243540
6.214067,0.074155,-0.031132,-0.242427
6.224077,0.066693,-0.030024,-0.245647
6.224077,0.066693,-0.030024,-0.245647
6.244158,0.059225,-0.032131,-0.246746
6.254168,0.093338,-0.032267,-0.241311
6.254168,0.093338,-0.032267,-0.241311
6.264208,0.037919,-0.028863,-0.245721
6.284258,0.052854,-0.026801,-0.240329
6.294268,0.051748,-0.037441,-0.247860
6.304308,0.077323,-0.041821,-0.242469
6.304308,0.077323,-0.041821,-0.242469
6.314318,0.050707,-0.026743,-0.251017
6.344408,0.067734,-0.035337,-0.252078
6.344408,0.067734,-0.035337,-0.252078
6.354449,0.057070,-0.037438,-0.252118
6.364458,0.056009,-0.035294,-0.253179
6.374499,0.072000,-0.033205,-0.254193
6.384509,0.054937,-0.036348,-0.255323
6.404559,0.064530,-0.034228,-0.258491
6.404559,0.064530,-0.034228,-0.258491
6.414599,0.049611,-0.034185,-0.257464
6.424609,0.068783,-0.036363,-0.261694
6.434649,0.052809,-0.032044,-0.260650
6.444689,0.047480,-0.032027,-0.260664
6.454699,0.063456,-0.033121,-0.265966
6.484789,0.073047,-0.035304,-0.262746
6.484789,0.073047,-0.035304,-0.262746
6.494799,0.040034,-0.025585,-0.262791
6.504839,0.054939,-0.032046,-0.261712
6.514849,0.074125,-0.031035,-0.262722
6.524889,0.041107,-0.022380,-0.263841
6.554980,0.052809,-0.030966,-0.262781
6.554980,0.052809,-0.030966,-0.262781
6.564989,0.065588,-0.034206,-0.263829
6.575030,0.053894,-0.024567,-0.261680
6.585040,0.058135,-0.030973,-0.264903
6.595080,0.057062,-0.036335,-0.259590
6.615130,0.059205,-0.029914,-0.263827
6.625140,0.085831,-0.036403,-0.264852
6.635180,0.046418,-0.027726,-0.265988
6.645190,0.057072,-0.029902,-0.264901
6.655230,0.081569,-0.034238,-0.268058
6.665270,0.041081,-0.028762,-0.269212
6.695330,0.061326,-0.027734,-0.274493
6.705370,0.062380,-0.029854,-0.278773
6.715380,0.050680,-0.022350,-0.276633
6.725420,0.058119,-0.027694,-0.280910
6.735430,0.064511,-0.027704,-0.283029
6.745470,0.067702,-0.028773,-0.285162
6.755511,0.046377,-0.030829,-0.287367
6.765520,0.065564,-0.028745,-0.289441
6.775561,0.078345,-0.031991,-0.289421
6.785571,0.052773,-0.026543,-0.294807
6.795611,0.074078,-0.030889,-0.293700
6.805621,0.079409,-0.029833,-0.294749
6.835711,0.078330,-0.029789,-0.303297
6.845721,0.070867,-0.032989,-0.299060
6.855761,0.058077,-0.029713,-0.305489
6.865801,0.068748,-0.026559,-0.302240
6.875811,0.066598,-0.032955,-0.303344
6.905901,0.077267,-0.027640,-0.305426
6.905901,0.077267,-0.027640,-0.305426
6.915911,0.075123,-0.036212,-0.297995
6.925951,0.047428,-0.027553,-0.303372
6.935961,0.104970,-0.033090,-0.301103
6.946001,0.055956,-0.029742,-0.298018
6.976092,0.045292,-0.029687,-0.302320
6.986102,0.085772,-0.037294,-0.302244
6.996142,0.079398,-0.029798,-0.302226
7.006152,0.066605,-0.028668,-0.306529
7.016192,0.072973,-0.038300,-0.306557
7.036242,0.070848,-0.034006,-0.309747
7.036242,0.070848,-0.034006,-0.309747
7.046252,0.063373,-0.038244,-0.311924
7.056292,0.055924,-0.032870,-0.314056
7.066332,0.074027,-0.037190,-0.316162
7.076342,0.066577,-0.031811,-0.319362
7.086382,0.047368,-0.041365,-0.318392
7.116442,0.066544,-0.042480,-0.321549
7.116442,0.066544,-0.042480,-0.321549
7.126482,0.064448,-0.031814,-0.317232
7.136492,0.062292,-0.034960,-0.327935
7.146532,0.085745,-0.038286,-0.318272
7.156573,0.067639,-0.031804,-0.321496
7.186633,0.055948,-0.023253,-0.315078
7.186633,0.055948,-0.023253,-0.315078
7.196673,0.131567,-0.039487,-0.321355
7.206683,0.053773,-0.038187,-0.317291
7.216723,0.047463,-0.002889,-0.324619
7.226733,0.150762,-0.040663,-0.311694
7.246823,0.088950,-0.035087,-0.319316
7.246823,0.088950,-0.035087,-0.319316
7.256863,0.090054,-0.024442,-0.312853
7.266903,0.049554,-0.018925,-0.322553
7.276913,0.087879,-0.036147,-0.320392
7.286953,0.063404,-0.022184,-0.320394
7.296963,0.076170,-0.030769,-0.320399
7.317013,0.066552,-0.037120,-0.325797
7.317013,0.066552,-0.037120,-0.325797
7.327053,0.093215,-0.032955,-0.321430
7.337063,0.058059,-0.029657,-0.317239
7.347103,0.088929,-0.040407,-0.323614
7.357113,0.084694,-0.028636,-0.325706
7.367154,0.074032,-0.035049,-0.317221
7.387204,0.094288,-0.028672,-0.324612
7.387204,0.094288,-0.028672,-0.324612
7.397244,0.082559,-0.031848,-0.322523
7.407254,0.088948,-0.034004,-0.322515
7.417294,0.087893,-0.028651,-0.324629
7.427304,0.068715,-0.027531,-0.322541
7.437344,0.108134,-0.034072,-0.321395
7.477444,0.090050,-0.025505,-0.313927
7.477444,0.090050,-0.025505,-0.313927
7.487484,0.078303,-0.030781,-0.319325
7.497494,0.100694,-0.027650,-0.319248
7.507534,0.095353,-0.036212,-0.311826
7.527584,0.106009,-0.035163,-0.314996
7.537594,0.079378,-0.029737,-0.315044
7.547634,0.079350,-0.042572,-0.310832
7.557644,0.084679,-0.039360,-0.316143
7.567685,0.060191,-0.029664,-0.317233
7.577725,0.074004,-0.047889,-0.311940
7.597775,0.071895,-0.033949,-0.322562
7.607785,0.023919,-0.039133,-0.322719
7.617825,0.053759,-0.040298,-0.322642
7.627835,0.047365,-0.038126,-0.325855
7.637875,0.034568,-0.038059,-0.331231
7.647885,0.032457,-0.033811,-0.324807
7.667965,0.039921,-0.031689,-0.326913
7.677975,0.054846,-0.034982,-0.318341
7.688015,0.053787,-0.031769,-0.319397
7.698025,0.048471,-0.030715,-0.312998
7.708065,0.072980,-0.028628,-0.319330
7.718075,0.070850,-0.034011,-0.308679
7.738125,0.090061,-0.024462,-0.308580
7.748165,0.069805,-0.028688,-0.304384
7.758175,0.066626,-0.023348,-0.302231
7.768216,0.074077,-0.026576,-0.302225
7.778256,0.057052,-0.019066,-0.297964
7.788266,0.060234,-0.022260,-0.302243
7.808316,0.043215,-0.011540,-0.299035
7.808316,0.043215,-0.011540,-0.299035
7.818356,0.069838,-0.019097,-0.300065
7.828366,0.047475,-0.015851,-0.293702
7.838406,0.040003,-0.014713,-0.303332
7.848416,0.069852,-0.016987,-0.294714
7.858456,0.041074,-0.013659,-0.301187
7.878506,0.046411,-0.011546,-0.300094
7.888546,0.065555,-0.022252,-0.307570
7.898556,0.046401,-0.014744,-0.301178
7.908596,0.079409,-0.022292,-0.308600
7.918606,0.053844,-0.016869,-0.308645
7.928646,0.070895,-0.021226,-0.302209
7.948696,0.076230,-0.015879,-0.307510
7.948696,0.076230,-0.015879,-0.307510
7.958706,0.076207,-0.023344,-0.309682
7.968747,0.099647,-0.025551,-0.310696
7.978787,0.059176,-0.015818,-0.308625
7.988797,0.096441,-0.025515,-0.316045
7.998837,0.095404,-0.019140,-0.308541
8.028897,0.097525,-0.020189,-0.313881
8.038937,0.058093,-0.024379,-0.304396
8.048947,0.069809,-0.023313,-0.311836
8.058987,0.089002,-0.020172,-0.311768
8.068997,0.042100,-0.024306,-0.308712
8.089077,0.065567,-0.019058,-0.305418
8.089077,0.065567,-0.019058,-0.305418
8.099087,0.054862,-0.031803,-0.312985
8.109127,0.066598,-0.034033,-0.301213
8.119137,0.055978,-0.019037,-0.303308
8.129177,0.062318,-0.038275,-0.304450
8.139187,0.064477,-0.030827,-0.300136
8.159237,0.073007,-0.031943,-0.295844
8.169278,0.055943,-0.034008,-0.299106
8.179318,0.057033,-0.028702,-0.292669
8.189328,0.069828,-0.028759,-0.289429
8.199368,0.076209,-0.031969,-0.292631
8.209378,0.060242,-0.024441,-0.292640
8.229428,0.077288,-0.027705,-0.291540
8.229428,0.077288,-0.027705,-0.291540
8.239490,0.061299,-0.030877,-0.287326
8.249500,0.074089,-0.028768,-0.290485
8.259540,0.089020,-0.027769,-0.286167
8.269550,0.052774,-0.030855,-0.286281
8.279590,0.066618,-0.031942,-0.291589
8.309680,0.079399,-0.035188,-0.291569
8.309680,0.079399,-0.035188,-0.291569
8.319690,0.039988,-0.025438,-0.293769
8.329730,0.066615,-0.033010,-0.291594
8.339740,0.065562,-0.027662,-0.292640
8.349780,0.055967,-0.028699,-0.292672
8.359790,0.051689,-0.030791,-0.299103
8.369831,0.066637,-0.024462,-0.292622
8.379840,0.044260,-0.022248,-0.293742
8.389881,0.073004,-0.033011,-0.295850
8.399921,0.055992,-0.018005,-0.295826
8.409931,0.063437,-0.025519,-0.292636
8.419971,0.065573,-0.023385,-0.293688
8.440021,0.051730,-0.017996,-0.294769
8.450031,0.073031,-0.025556,-0.291541
8.460071,0.053869,-0.015872,-0.293685
8.470081,0.061309,-0.022294,-0.295831
8.480121,0.053862,-0.018003,-0.294763
8.490161,0.063447,-0.022321,-0.291552
8.510211,0.050668,-0.018002,-0.292636
8.510211,0.050668,-0.018002,-0.292636
8.520221,0.060251,-0.022315,-0.290493
8.530261,0.044264,-0.022263,-0.290537
8.540271,0.061313,-0.023382,-0.291563
8.550311,0.048522,-0.025491,-0.288404
8.560321,0.060231,-0.030869,-0.288397
8.580371,0.077287,-0.032013,-0.284083
8.580371,0.077287,-0.032013,-0.284083
8.590412,0.022942,-0.027559,-0.285280
8.600452,0.079414,-0.033082,-0.285150
8.610462,0.057055,-0.027695,-0.279845
8.620502,0.057036,-0.031942,-0.285206
8.630512,0.068763,-0.034146,-0.278775
8.660602,0.062382,-0.029859,-0.277704
8.660602,0.062382,-0.029859,-0.277704
8.670612,0.051745,-0.018041,-0.285155
8.680652,0.077297,-0.033121,-0.275542
8.690692,0.041080,-0.022294,-0.282000
8.700702,0.054934,-0.023412,-0.280899
8.720752,0.065568,-0.028755,-0.287304
8.730792,0.036838,-0.019116,-0.273451
8.740802,0.051730,-0.023381,-0.285181
8.750843,0.058125,-0.024480,-0.283032
8.760852,0.034696,-0.020152,-0.278803
8.770893,0.059186,-0.025546,-0.284102
8.800983,0.070925,-0.021323,-0.281913
8.800983,0.070925,-0.021323,-0.281913
8.810993,0.036825,-0.019076,-0.281997
8.821033,0.050659,-0.022284,-0.290519
8.831043,0.043229,-0.015893,-0.281964
8.841083,0.050640,-0.028687,-0.291618
8.861133,0.046406,-0.016916,-0.293710
8.871143,0.052801,-0.020171,-0.287299
8.881183,0.034730,-0.004103,-0.285136
8.891193,0.071968,-0.026640,-0.287277
8.901233,0.047468,-0.023372,-0.284124
8.911273,0.044296,-0.015901,-0.280893
8.931323,0.065597,-0.023461,-0.277665
8.941333,0.022936,-0.029695,-0.285290
8.951374,0.070922,-0.027776,-0.272330
8.961383,0.066670,-0.021334,-0.276584
8.971424,0.048533,-0.030912,-0.271338
8.981433,0.052773,-0.040547,-0.269236
8.991474,0.062411,-0.021335,-0.273391
9.001514,0.048539,-0.030932,-0.267066
9.011524,0.052783,-0.037348,-0.268152
9.021564,0.053868,-0.029871,-0.269182
9.031574,0.050676,-0.032032,-0.261724
9.041614,0.055994,-0.032014,-0.269186
9.051624,0.044285,-0.028792,-0.264931
9.071674,0.048544,-0.028791,-0.268124
9.081714,0.054938,-0.032041,-0.262780
9.091724,0.043214,-0.030925,-0.264944
9.101764,0.051743,-0.029885,-0.264915
9.111804,0.048543,-0.033098,-0.260666
9.121814,0.043210,-0.029837,-0.269211
9.141864,0.053871,-0.030960,-0.264914
9.151905,0.045354,-0.028806,-0.262791
9.161914,0.050689,-0.027766,-0.260635
9.171955,0.057070,-0.030975,-0.263838
9.181964,0.051747,-0.032051,-0.258516
9.192005,0.051749,-0.027749,-0.264905
9.202045,0.067711,-0.038495,-0.261707
9.212055,0.025105,-0.031974,-0.256453
9.222095,0.053879,-0.029907,-0.261705
9.232105,0.048555,-0.028827,-0.260646
9.242177,0.042147,-0.033072,-0.261752
9.252187,0.058148,-0.027785,-0.261683
9.262227,0.052808,-0.035273,-0.255324
9.282277,0.062424,-0.026761,-0.255257
9.292287,0.046418,-0.033112,-0.256400
9.302327,0.049598,-0.040608,-0.254290
9.312367,0.050705,-0.025660,-0.254216
9.322377,0.059214,-0.032095,-0.254223
9.332417,0.047476,-0.039553,-0.250018
9.342427,0.050691,-0.033156,-0.249979
9.352468,0.057074,-0.037448,-0.249981
9.362477,0.058144,-0.036389,-0.248905
9.372518,0.056017,-0.034241,-0.249969
9.382527,0.045361,-0.037446,-0.242536
9.392568,0.049618,-0.036361,-0.248929
9.402577,0.047499,-0.035317,-0.242520
9.432668,0.059210,-0.037470,-0.246771
9.442708,0.043247,-0.029953,-0.244643
9.452718,0.041101,-0.035286,-0.244674
9.462758,0.053902,-0.033212,-0.240356
9.472768,0.047497,-0.036390,-0.241457
9.482808,0.038985,-0.029944,-0.243587
9.492818,0.059234,-0.030005,-0.244599
9.502858,0.032597,-0.029944,-0.239331
9.512898,0.047497,-0.036390,-0.241457
9.522908,0.049654,-0.027858,-0.240343
9.532948,0.045377,-0.031033,-0.243574
9.542958,0.032619,-0.021395,-0.240359
9.563008,0.040065,-0.026759,-0.240364
9.573049,0.041130,-0.026763,-0.240361
9.583058,0.034740,-0.026757,-0.237174
9.593099,0.036875,-0.026774,-0.235032
9.603108,0.027268,-0.032083,-0.235083
9.613149,0.021944,-0.026695,-0.241482
9.623189,0.053935,-0.022543,-0.238169
9.633199,0.021954,-0.025648,-0.237204
9.643239,0.036847,-0.035302,-0.238277
9.653249,0.043286,-0.022538,-0.231789
9.663289,0.027283,-0.026743,-0.235058
9.673299,0.050709,-0.036446,-0.231835
9.683339,0.029427,-0.025712,-0.228638
9.713429,0.041133,-0.032158,-0.228636
9.723439,0.045401,-0.032187,-0.225420
9.733479,0.033695,-0.025741,-0.225422
9.743489,0.049663,-0.032196,-0.226476
9.753530,0.033679,-0.033232,-0.222253
9.763539,0.031552,-0.030006,-0.225448
9.773580,0.037942,-0.032168,-0.224372
9.783589,0.040080,-0.032195,-0.220093
9.793630,0.023024,-0.032129,-0.222277
9.803639,0.035813,-0.034322,-0.219047
9.813680,0.036887,-0.030044,-0.221160
9.823720,0.040085,-0.031132,-0.219020
9.843770,0.040088,-0.032220,-0.214753
9.853780,0.035829,-0.030065,-0.215822
9.863820,0.058214,-0.029070,-0.215756
9.873830,0.025185,-0.026842,-0.212632
9.883870,0.058199,-0.033332,-0.217912
9.893880,0.041155,-0.031151,-0.215813
9.903920,0.043302,-0.026896,-0.213650
9.903920,0.043302,-0.026896,-0.213650
9.923970,0.040093,-0.030079,-0.215811
9.934010,0.031600,-0.019388,-0.212579
9.944020,0.050756,-0.027978,-0.215771
9.944020,0.050756,-0.027978,-0.215771
9.954061,0.044358,-0.031176,-0.212599
9.974111,0.048623,-0.032273,-0.209388
9.984120,0.027312,-0.028990,-0.211568
9.984120,0.027312,-0.028990,-0.211568
9.994161,0.047555,-0.031187,-0.212591
10.014211,0.030504,-0.032214,-0.209438
10.024251,0.049690,-0.032282,-0.208317
10.034261,0.041177,-0.027987,-0.207252
10.034261,0.041177,-0.027987,-0.207252
10.044301,0.033713,-0.029031,-0.207278
10.074361,0.048632,-0.030148,-0.207242
10.074361,0.048632,-0.030148,-0.207242
10.084401,0.047574,-0.031247,-0.199772
10.094411,0.023053,-0.031142,-0.205181
10.104451,0.057151,-0.035540,-0.201902
10.114461,0.030532,-0.026915,-0.200867
10.134541,0.035855,-0.030146,-0.198731
10.134541,0.035855,-0.030146,-0.198731
10.144551,0.032652,-0.032272,-0.198750
10.154592,0.030520,-0.032265,-0.198756
10.164601,0.047580,-0.030190,-0.197631
10.174642,0.018805,-0.030101,-0.196642
10.184651,0.044370,-0.035524,-0.196597
10.214742,0.045460,-0.029140,-0.192291
10.214742,0.045460,-0.029140,-0.192291
10.224782,0.025204,-0.031210,-0.192356
10.234792,0.044387,-0.032345,-0.191241
10.244831,0.040140,-0.026997,-0.190159
10.254841,0.036939,-0.028055,-0.190173
10.274891,0.033742,-0.029122,-0.188050
10.274891,0.033742,-0.029122,-0.188050
10.284931,0.031602,-0.031241,-0.190202
10.294941,0.046523,-0.031289,-0.190161
10.304981,0.018830,-0.026948,-0.185945
10.314991,0.033732,-0.031243,-0.191265
10.325031,0.030552,-0.026981,-0.186981
10.355122,0.031602,-0.032319,-0.188071
10.355122,0.031602,-0.032319,-0.188071
10.365131,0.011371,-0.025851,-0.187028
10.375172,0.038004,-0.029131,-0.189107
10.385181,0.020960,-0.026950,-0.187007
10.395222,0.031606,-0.031256,-0.186998
10.425281,0.038009,-0.029146,-0.185902
10.425281,0.038009,-0.029146,-0.185902
10.435322,0.018824,-0.029084,-0.185955
10.445362,0.029487,-0.028056,-0.184852
10.455372,0.027357,-0.028054,-0.183790
10.465412,0.034813,-0.029141,-0.184843
10.495472,0.011379,-0.025876,-0.181687
10.495472,0.011379,-0.025876,-0.181687
10.505512,0.035879,-0.030222,-0.182708
10.515522,0.015648,-0.025910,-0.177403
10.525562,0.019916,-0.022705,-0.180580
10.535603,0.033761,-0.029183,-0.175232
10.555653,0.026314,-0.023814,-0.176295
10.555653,0.026314,-0.023814,-0.176295
10.565662,0.029510,-0.025975,-0.173092
10.575703,0.009264,-0.023769,-0.174206
10.585712,0.019928,-0.022746,-0.172035
10.595753,0.025259,-0.022768,-0.170952
10.605762,0.011401,-0.024869,-0.168864
10.625812,0.014607,-0.021675,-0.168840
10.625812,0.014607,-0.021675,-0.168840
10.635853,0.031648,-0.027081,-0.166682
10.645893,0.005005,-0.025921,-0.167818
10.655903,0.026297,-0.034534,-0.167800
10.665943,0.012469,-0.025955,-0.165661
10.675953,0.027381,-0.029208,-0.165636
10.706043,0.009260,-0.030217,-0.165690
10.706043,0.009260,-0.030217,-0.165690
10.716053,0.033766,-0.034583,-0.162439
10.726093,0.011396,-0.029161,-0.164611
10.736103,0.020978,-0.034547,-0.161406
10.746143,0.017788,-0.031328,-0.162467
10.766193,0.017786,-0.032401,-0.161404
10.776234,0.024200,-0.029248,-0.154962
10.786243,0.006075,-0.029169,-0.159285
10.796284,0.030589,-0.031405,-0.154955
10.806293,0.024214,-0.023908,-0.154937
10.816334,0.014611,-0.029227,-0.152852
10.836384,0.023156,-0.023930,-0.149599
10.846424,0.026362,-0.022888,-0.146381
10.856434,0.022094,-0.023937,-0.147466
10.866474,0.028484,-0.026098,-0.146390
10.876484,0.016764,-0.026070,-0.144286
10.886524,0.032748,-0.026112,-0.146378
10.916584,0.022092,-0.029317,-0.138945
10.916584,0.022092,-0.029317,-0.138945
10.926624,0.014639,-0.026084,-0.140019
10.936634,0.026367,-0.025059,-0.138913
10.946674,0.014634,-0.028225,-0.138961
10.956715,0.025281,-0.033609,-0.136820
10.966724,0.005054,-0.025000,-0.136836
10.976765,0.028496,-0.027212,-0.136781
10.986774,0.011448,-0.026094,-0.135755
10.996815,0.012504,-0.031452,-0.132573
11.006824,0.019961,-0.031466,-0.134689
11.016865,0.011448,-0.028250,-0.131492
11.026874,0.022106,-0.028284,-0.131463
11.056965,0.021047,-0.028301,-0.127193
11.056965,0.021047,-0.028301,-0.127193
11.067005,0.023187,-0.025104,-0.127172
11.077015,0.011450,-0.030411,-0.126161
11.087055,0.022115,-0.030466,-0.121859
11.097065,0.005073,-0.025061,-0.124017
11.127155,0.023184,-0.030479,-0.119720
11.127155,0.023184,-0.030479,-0.119720
11.137165,0.000821,-0.024004,-0.118683
11.147205,0.018934,-0.027277,-0.116512
11.157246,-0.003443,-0.025063,-0.117632
11.167255,0.015732,-0.029407,-0.115463
11.197346,0.016821,-0.023019,-0.112225
11.197346,0.016821,-0.023019,-0.112225
11.207355,-0.002371,-0.027243,-0.109093
11.217396,0.011480,-0.029429,-0.107997
11.227405,0.004035,-0.025143,-0.105861
11.237446,0.016808,-0.030519,-0.106919
11.257540,0.011489,-0.027303,-0.105851
11.267580,-0.001289,-0.026219,-0.100540
11.277590,0.023224,-0.025221,-0.102604
11.287630,0.002980,-0.024097,-0.100518
11.297640,0.007234,-0.027315,-0.100521
11.307680,0.005113,-0.024109,-0.099444
11.327730,0.009375,-0.026274,-0.096238
11.337740,0.004050,-0.024116,-0.097310
11.347780,0.002994,-0.023065,-0.093035
11.357821,0.006181,-0.025196,-0.096241
11.367830,0.014721,-0.023113,-0.090867
11.377871,-0.007669,-0.024093,-0.094138
11.397921,-0.001257,-0.022013,-0.086633
11.407930,0.014718,-0.025259,-0.088741
11.417971,0.010463,-0.025270,-0.083411
11.427980,0.006187,-0.029523,-0.084511
11.438021,0.013661,-0.027437,-0.079140
11.448031,0.005140,-0.024195,-0.081284
11.468111,0.011532,-0.026362,-0.079141
11.478121,0.007270,-0.028504,-0.074890
11.488161,0.000882,-0.026353,-0.073829
11.498171,0.016865,-0.027467,-0.074858
11.508211,-0.002307,-0.025289,-0.070628
11.518221,0.008327,-0.033867,-0.070639
11.538271,0.009429,-0.023212,-0.066313
11.548311,0.001950,-0.029595,-0.066364
11.558352,0.000891,-0.028534,-0.064225
11.568361,0.006223,-0.028561,-0.062074
11.578402,0.006228,-0.028577,-0.058870
11.588411,0.005163,-0.026422,-0.062067
11.618502,0.010506,-0.025407,-0.054570
11.618502,0.010506,-0.025407,-0.054570
11.628511,0.005194,-0.021133,-0.051360
11.638552,-0.005478,-0.025365,-0.052478
11.648562,0.012630,-0.030774,-0.050317
11.658602,-0.008646,-0.017904,-0.047110
11.668642,0.012641,-0.026502,-0.050296
11.678652,-0.000137,-0.026496,-0.042854
11.688692,-0.004400,-0.023253,-0.048192
11.698702,0.001997,-0.025435,-0.042843
11.708742,-0.003323,-0.022214,-0.042843
11.718752,0.004123,-0.026500,-0.044979
11.728792,-0.012910,-0.023276,-0.037533
11.748842,-0.007576,-0.023308,-0.034314
11.748842,-0.007576,-0.023308,-0.034314
11.758852,-0.006529,-0.026485,-0.040735
11.768892,-0.011855,-0.026478,-0.038614
11.778933,-0.007581,-0.024371,-0.035387
11.788942,-0.011857,-0.028624,-0.036487
11.798983,-0.000120,-0.024395,-0.035367
11.819033,-0.007600,-0.031852,-0.034355
11.829043,-0.019319,-0.029673,-0.035445
11.839083,0.000930,-0.030811,-0.034326
11.849093,-0.015036,-0.024362,-0.032203
11.859133,-0.010797,-0.031841,-0.034363
11.869173,-0.010785,-0.028648,-0.032212
11.889223,-0.002260,-0.028670,-0.033256
11.889223,-0.002260,-0.028670,-0.033256
11.899233,-0.018245,-0.029701,-0.030101
11.909273,-0.019310,-0.027547,-0.033298
11.919283,-0.017171,-0.025423,-0.032214
11.929323,-0.009706,-0.024384,-0.031120
11.939333,-0.023564,-0.025407,-0.031164
11.959383,-0.032083,-0.022171,-0.032240
11.969423,-0.007576,-0.024386,-0.032183
11.979464,-0.011827,-0.022257,-0.027912
11.989473,-0.013963,-0.023313,-0.028991
11.999514,-0.009710,-0.027603,-0.027931
12.009523,-0.022470,-0.017961,-0.025784
12.019564,0.003099,-0.021242,-0.026797
12.029574,-0.007568,-0.025490,-0.024710
12.039614,-0.000081,-0.015903,-0.024644
12.049624,0.005222,-0.025531,-0.024675
12.059664,-0.019282,-0.023326,-0.022596
12.069704,-0.012888,-0.022269,-0.024710
12.079714,0.013728,-0.034112,-0.022556
12.089754,-0.034211,-0.025408,-0.023715
12.099764,-0.000101,-0.025534,-0.020417
12.109804,-0.017162,-0.027604,-0.022611
12.119814,-0.008642,-0.029768,-0.022597
12.129854,-0.025686,-0.026509,-0.022629
12.139864,-0.001174,-0.026583,-0.023630
12.149904,-0.009696,-0.026571,-0.020449
12.159914,-0.015047,-0.032946,-0.023698
12.169954,-0.020372,-0.031866,-0.022640
12.179995,0.000965,-0.024460,-0.022546
12.190004,-0.013950,-0.023353,-0.020445
12.200045,0.004137,-0.034086,-0.021514
12.210054,-0.005441,-0.029789,-0.020452
12.220095,-0.003298,-0.025524,-0.020426
12.230105,0.008411,-0.030901,-0.020419
12.240140,-0.011839,-0.031914,-0.018343
12.250149,-0.010753,-0.023364,-0.020436
12.260190,0.000956,-0.028741,-0.020429
12.270200,-0.000115,-0.033030,-0.016180
12.280239,-0.015029,-0.027616,-0.021536
12.290279,0.002027,-0.028760,-0.017222
12.290279,0.002027,-0.028760,-0.017222
12.310330,0.014821,-0.028817,-0.013982
12.320339,-0.022483,-0.028691,-0.015153
12.330380,-0.007577,-0.033001,-0.017268
12.340390,-0.015010,-0.023370,-0.016175
12.350429,0.010552,-0.029861,-0.016135
12.360439,-0.015022,-0.029793,-0.013001
12.370480,-0.006496,-0.028742,-0.015109
12.380521,-0.010745,-0.023389,-0.015095
12.390529,-0.007564,-0.028734,-0.016180
12.400571,-0.008626,-0.029819,-0.011915
12.410580,-0.022473,-0.025492,-0.014069
12.420620,-0.001155,-0.025566,-0.012943
12.430630,-0.009682,-0.025538,-0.012966
12.440671,-0.015026,-0.029783,-0.015137
12.460720,-0.004341,-0.021284,-0.012931
12.470731,-0.001158,-0.027712,-0.010816
12.480771,-0.014999,-0.021249,-0.012961
12.490810,-0.024591,-0.020140,-0.015118
12.500820,0.016965,-0.025630,-0.011825
12.520871,-0.007542,-0.024493,-0.009751
12.520871,-0.007542,-0.024493,-0.009751
12.530910,-0.020332,-0.022295,-0.014048
12.540921,-0.001140,-0.021304,-0.010786
12.550961,-0.013932,-0.021258,-0.011889
12.560970,-0.030971,-0.016936,-0.010848
12.571010,-0.009670,-0.020189,-0.015077
12.601101,-0.002224,-0.026631,-0.012951
12.611111,-0.013925,-0.020200,-0.009748
12.621152,-0.016075,-0.026601,-0.009784
12.631162,-0.014994,-0.020186,-0.011887
12.641201,-0.005405,-0.022364,-0.009735
12.671261,0.000976,-0.025573,-0.012937
12.671261,0.000976,-0.025573,-0.012937
12.681301,-0.018200,-0.024458,-0.009780
12.691342,-0.020338,-0.025509,-0.011927
12.701351,0.000980,-0.027739,-0.006538
12.711391,-0.020316,-0.019116,-0.008692
12.721402,-0.012879,-0.025528,-0.012975
12.731442,0.002052,-0.025607,-0.006525
12.741451,-0.020317,-0.019111,-0.009760
12.751491,-0.001144,-0.024523,-0.007597
12.761502,-0.007536,-0.022357,-0.009741
12.771541,-0.009656,-0.021312,-0.003332
12.781551,-0.003264,-0.020245,-0.007582
12.801633,-0.009659,-0.020224,-0.007600
12.811641,0.002059,-0.023476,-0.005446
12.821682,-0.020321,-0.023408,-0.004440
12.831693,-0.006453,-0.018109,-0.005445
12.841733,-0.002173,-0.012788,-0.004339
12.851742,-0.011802,-0.025567,-0.005495
12.861783,-0.020302,-0.015928,-0.005473
12.871793,0.004205,-0.017065,-0.007547
12.881832,-0.017125,-0.024492,-0.003368
12.891872,-0.023510,-0.019116,-0.006565
12.901883,0.006337,-0.019228,-0.003278
12.911923,-0.020318,-0.021262,-0.006566
12.921932,-0.004337,-0.024528,-0.004401
12.941983,-0.008592,-0.018076,-0.010791
12.952022,-0.001140,-0.024539,-0.004392
12.962032,-0.016064,-0.025558,-0.004438
12.972073,-0.017104,-0.013787,-0.008658
12.982083,0.007391,-0.022425,-0.005427
12.992122,-0.036319,-0.024399,-0.009830
13.002164,0.007388,-0.022415,-0.007563
13.012173,-0.020315,-0.021273,-0.004430
13.022213,-0.027775,-0.018019,-0.009776
13.032223,0.012708,-0.026714,-0.005432
13.042264,-0.036299,-0.019075,-0.006600
13.052274,-0.004342,-0.023435,-0.009737
13.062313,-0.000058,-0.019208,-0.003296
13.072324,-0.028848,-0.022303,-0.006595
13.082364,-0.005409,-0.025583,-0.006545
13.092373,-0.016064,-0.024480,-0.006569
13.102413,-0.012855,-0.018063,-0.010803
13.112454,-0.009670,-0.026652,-0.003357
13.122464,-0.022453,-0.021245,-0.008708
13.132503,-0.009666,-0.024511,-0.004416
13.142514,-0.017137,-0.027685,-0.005519
13.152554,-0.003278,-0.024511,-0.008671
13.162563,-0.023510,-0.019116,-0.006565
13.172603,-0.001148,-0.027742,-0.004407
13.182614,-0.018194,-0.024478,-0.005507
13.192654,-0.009673,-0.026642,-0.005494
13.202694,-0.007536,-0.023435,-0.007609
13.212704,-0.012869,-0.026636,-0.004434
13.222745,-0.012877,-0.028767,-0.005513
13.232755,-0.005416,-0.028791,-0.005492
13.242842,-0.020341,-0.030884,-0.004475
13.252852,-0.001155,-0.027722,-0.008680
13.262892,-0.011809,-0.028776,-0.004442
13.272902,-0.025669,-0.028716,-0.007684
13.282942,0.011632,-0.030988,-0.004387
13.292952,-0.030988,-0.026578,-0.004484
13.302992,0.007376,-0.026687,-0.007583
13.313032,-0.016056,-0.024505,-0.001229
13.323042,-0.014997,-0.024489,-0.005498
13.333082,-0.004352,-0.028790,-0.006558
13.343092,-0.022461,-0.026605,-0.004461
13.363142,-0.010726,-0.023450,-0.002277
13.373182,-0.022450,-0.022334,-0.004441
13.383192,-0.003271,-0.026688,-0.000135
13.393232,-0.014998,-0.025562,-0.004435
13.403273,-0.009673,-0.028798,-0.001231
13.413283,-0.005415,-0.032026,0.000902
13.433333,0.014836,-0.032096,0.002026
13.443373,-0.024603,-0.031953,-0.001287
13.453383,0.004174,-0.032047,-0.001208
13.463423,-0.006481,-0.032022,0.000899
13.473433,-0.011797,-0.026660,-0.000159
13.483473,-0.001155,-0.032029,-0.001223
13.513563,-0.027778,-0.025550,0.001939
13.523573,-0.005410,-0.028812,-0.001219
13.533613,-0.011778,-0.020258,0.000940
13.543623,-0.026721,-0.027680,-0.000205
13.553663,-0.001139,-0.026695,-0.000129
13.573713,-0.012851,-0.022385,-0.000141
13.583723,0.010596,-0.025690,0.005249
13.593763,-0.022436,-0.020223,0.000911
13.603773,0.002082,-0.018162,-0.000080
13.613814,0.006354,-0.017128,0.004209
13.623854,-0.001109,-0.017093,0.002052
13.643904,0.002087,-0.019255,0.005256
13.653914,-0.000043,-0.018175,0.004187
13.663954,0.003155,-0.020341,0.008458
13.673964,0.005295,-0.012838,0.001022
13.684004,0.004235,-0.015005,0.008486
13.694014,-0.003253,-0.022436,0.004158
13.714094,-0.010710,-0.021344,0.004142
13.724104,0.007398,-0.024602,0.003109
13.724104,0.007398,-0.024602,0.003109
13.734144,0.001035,-0.017141,0.010604
13.754194,0.011651,-0.029970,0.006300
13.764204,-0.020302,-0.022391,0.006247
13.794294,-0.013921,-0.025600,0.003045
13.794294,-0.013921,-0.025600,0.003045
13.804304,-0.004337,-0.030991,0.007319
13.814345,-0.012869,-0.035256,0.011548
13.824385,-0.007545,-0.032024,0.001964
13.834395,-0.004322,-0.027808,0.011607
13.854445,-0.005405,-0.033134,0.009442
13.854445,-0.005405,-0.033134,0.009442
13.864485,-0.007522,-0.027787,0.009462
13.874495,-0.011812,-0.035229,0.005142
13.884535,-0.010733,-0.034200,0.012627
13.894545,-0.009666,-0.029896,0.005173
13.904585,-0.009652,-0.028864,0.012655
13.924635,-0.001145,-0.034216,0.009449
13.924635,-0.001145,-0.034216,0.009449
13.934675,-0.033097,-0.026641,0.010465
13.944685,-0.005424,-0.037385,0.005149
13.954725,-0.020315,-0.028814,0.009421
13.964735,-0.025656,-0.031990,0.007255
13.974775,-0.011793,-0.030982,0.010503
14.004835,-0.011783,-0.025628,0.007324
14.004835,-0.011783,-0.025628,0.007324
14.014876,-0.000078,-0.033146,0.008389
14.024916,-0.026698,-0.024521,0.009424
14.034926,-0.011801,-0.030957,0.005162
14.044966,-0.012857,-0.030984,0.011568
14.065016,-0.003261,-0.028874,0.010537
14.065016,-0.003261,-0.028874,0.010537
14.075026,-0.016046,-0.026692,0.009443
14.085066,-0.004340,-0.032059,0.007314
14.095076,-0.012839,-0.025654,0.013730
14.115126,-0.006464,-0.031000,0.010518
14.135206,-0.026714,-0.029856,0.008331
14.135206,-0.026714,-0.029856,0.008331
14.145216,-0.002203,-0.032082,0.010524
14.155256,-0.033116,-0.031966,0.007235
14.165266,-0.003268,-0.031005,0.009458
14.175306,-0.021376,-0.026669,0.008360
14.185316,-0.019271,-0.036288,0.008321
14.215407,-0.007537,-0.034205,0.011568
14.215407,-0.007537,-0.034205,0.011568
14.225447,-0.017127,-0.034179,0.012610
14.235457,-0.012852,-0.026692,0.007316
14.245498,-0.011776,-0.027804,0.015859
14.255508,-0.011802,-0.033108,0.008356
14.275558,-0.036285,-0.024505,0.012602
14.275558,-0.036285,-0.024505,0.012602
14.285598,0.006302,-0.038507,0.008381
14.295608,-0.011797,-0.033123,0.011561
14.305648,-0.034141,-0.017011,0.007303
14.315658,0.006318,-0.032094,0.007343
14.325698,-0.014986,-0.028831,0.009436
14.355788,-0.013912,-0.024553,0.007323
14.355788,-0.013912,-0.024553,0.007323
14.365798,-0.013907,-0.022412,0.006265
14.375838,-0.004323,-0.028881,0.012670
14.385848,-0.004312,-0.020297,0.004165
14.395888,-0.012830,-0.023529,0.015876
14.415939,-0.026699,-0.025594,0.010487
14.415939,-0.026699,-0.025594,0.010487
14.425979,0.007414,-0.025730,0.015922
14.435989,-0.007519,-0.026719,0.009467
14.446029,-0.010716,-0.031021,0.017983
14.456039,0.010597,-0.030002,0.013774
14.466079,-0.012839,-0.024576,0.011599
14.496139,0.001009,-0.029986,0.016952
14.496139,0.001009,-0.029986,0.016952
14.506179,-0.011785,-0.031008,0.015844
14.516189,0.008454,-0.035345,0.015879
14.526229,-0.017117,-0.030980,0.013693
14.536269,0.007391,-0.033196,0.013750
14.556319,-0.004335,-0.034231,0.014781
14.556319,-0.004335,-0.034231,0.014781
14.566329,0.005276,-0.030010,0.019100
14.576369,-0.013934,-0.036330,0.013676
14.586379,0.019116,-0.034317,0.016982
14.596419,-0.013903,-0.025656,0.014795
14.606429,0.010581,-0.037493,0.016943
14.626479,-0.003264,-0.034249,0.017989
14.636520,0.005261,-0.033194,0.014813
14.646560,0.005249,-0.037466,0.014792
14.656570,-0.011780,-0.028867,0.014786
14.666610,-0.001126,-0.027813,0.010547
14.676620,0.008474,-0.027870,0.015915
14.696670,0.005263,-0.031048,0.012686
14.706710,-0.016037,-0.024566,0.011590
14.716720,-0.004328,-0.028866,0.009465
14.726760,0.002079,-0.025693,0.011635
14.736800,-0.018165,-0.020262,0.006263
14.746810,0.005270,-0.025683,0.007371
14.776900,-0.019235,-0.022400,0.007318
14.776900,-0.019235,-0.022400,0.007318
14.786910,-0.004315,-0.022443,0.006291
14.796950,-0.020302,-0.022391,0.006247
14.806960,-0.000063,-0.027807,0.008414
14.817001,-0.017106,-0.022396,0.005188
14.837051,0.002062,-0.028871,0.006278
14.847091,-0.050143,-0.021221,0.005102
14.857101,-0.000060,-0.027817,0.010550
14.867141,-0.043750,-0.021237,0.004051
14.877151,-0.002193,-0.028883,0.011608
14.887191,-0.041618,-0.022322,0.006189
14.917251,-0.005392,-0.027789,0.008399
14.927291,-0.012860,-0.030974,0.009432
14.937301,-0.010714,-0.026719,0.011594
14.947341,-0.013911,-0.025631,0.009454
14.957381,-0.004326,-0.028871,0.010534
14.967391,-0.013914,-0.025621,0.007318
14.977431,-0.008587,-0.026711,0.008396
14.987441,-0.005383,-0.026742,0.012677
14.997481,-0.025636,-0.023437,0.005159
15.007491,0.000995,-0.031019,0.009470
15.017532,-0.025629,-0.022379,0.007301
15.027541,-0.013911,-0.025631,0.009454
15.067672,-0.010701,-0.018140,0.004157
15.067672,-0.010701,-0.018140,0.004157
15.077682,-0.005371,-0.019241,0.007372
15.087722,-0.016054,-0.026666,0.004102
15.097732,-0.002192,-0.025654,0.006282
15.117782,0.005253,-0.028861,0.002014
15.127822,0.004217,-0.021413,0.008456
15.137832,-0.025630,-0.021301,0.005169
15.147872,0.010608,-0.023575,0.009532
15.157912,-0.007523,-0.024553,0.003068
15.167922,0.006348,-0.023571,0.011656
15.198013,-0.024571,-0.023435,0.004094
15.198013,-0.024571,-0.023435,0.004094
15.208022,0.012714,-0.032120,0.008429
15.218063,-0.020297,-0.018099,0.001995
15.228072,-0.007532,-0.027757,0.003053
15.238113,-0.013918,-0.025611,0.005181
15.268239,-0.010729,-0.024518,-0.002282
15.268239,-0.010729,-0.024518,-0.002282
15.278249,-0.002183,-0.024606,0.010560
15.288289,-0.007522,-0.022402,-0.000127
15.298299,0.002059,-0.028861,0.004142
15.308339,-0.013906,-0.021339,0.005202
15.328389,0.005276,-0.023547,0.007381
15.328389,0.005276,-0.023547,0.007381
15.338399,-0.019237,-0.019160,-0.000144
15.348439,0.015923,-0.026780,0.006327
15.358479,-0.024557,-0.015939,-0.000143
15.368489,0.014859,-0.025704,0.005261
15.378529,-0.012844,-0.023483,0.006263
15.398580,0.005267,-0.025673,0.005234
15.398580,0.005267,-0.025673,0.005234
15.408589,-0.030968,-0.022331,0.000877
15.418630,0.010587,-0.027816,0.003102
15.428639,-0.028829,-0.021285,0.004092
15.438680,-0.009660,-0.024531,-0.000143
15.448689,-0.007514,-0.021349,0.003083
15.478780,-0.007506,-0.018146,0.003098
15.478780,-0.007506,-0.018146,0.003098
15.488820,-0.001126,-0.022428,0.000959
15.498830,-0.019242,-0.023452,0.004109
15.508870,-0.002177,-0.017085,0.000981
15.518880,0.001025,-0.016032,0.002063
15.538930,0.002084,-0.019245,0.003119
15.548970,-0.010700,-0.017067,0.003094
15.559010,-0.010722,-0.023460,-0.000141
15.569020,-0.010721,-0.023465,0.000928
15.579060,0.002096,-0.012822,-0.000055
15.589070,-0.006449,-0.020275,0.000954
15.609120,0.004201,-0.024591,0.003100
15.619161,-0.022436,-0.021301,0.003042
15.629170,0.003137,-0.022442,0.000971
15.639211,-0.003253,-0.020280,-0.000105
15.649220,-0.006452,-0.022421,0.003081
15.659261,-0.008578,-0.019200,0.000954
15.679311,-0.004325,-0.022413,-0.000118
15.679311,-0.004325,-0.022413,-0.000118
15.689351,-0.004327,-0.025637,0.004140
15.699361,0.003141,-0.022452,0.003107
15.709401,-0.002188,-0.022435,0.003092
15.719411,-0.003257,-0.022421,0.000953
15.729451,0.005274,-0.021386,0.002050
15.749501,0.002076,-0.021376,0.002041
15.759541,-0.007504,-0.018151,0.004166
15.769551,-0.001117,-0.019224,0.000974
15.779591,-0.000060,-0.023510,0.003093
15.789601,-0.019225,-0.015967,0.002008
15.799642,0.005279,-0.019250,0.002060
15.819692,-0.008580,-0.020268,0.000949
15.829701,-0.013905,-0.018110,-0.000124
15.839742,0.004204,-0.019216,-0.004352
15.849751,-0.019243,-0.022374,0.001977
15.859792,-0.009672,-0.026647,-0.004426
15.869832,-0.002177,-0.016007,-0.001150
15.889882,-0.013929,-0.024497,-0.004427
15.899892,0.010602,-0.020325,-0.000067
15.909932,-0.022436,-0.019145,-0.001221
15.919942,0.004190,-0.025634,-0.002246
15.929982,-0.001114,-0.018156,0.000979
15.939992,-0.018185,-0.022352,-0.003361
15.960042,-0.014971,-0.018106,-0.000127
15.970082,0.011651,-0.026736,-0.000094
15.980122,-0.021361,-0.018101,0.003060
15.990132,-0.003257,-0.022421,0.000953
16.000173,-0.011767,-0.017059,0.002023
16.010182,0.001012,-0.021377,0.003106
16.030232,-0.004317,-0.021360,0.003092
16.040273,-0.007505,-0.015995,-0.000096
16.050282,-0.024551,-0.014881,0.001998
16.060323,0.009536,-0.019244,-0.002201
16.070363,-0.024542,-0.011678,0.002013
16.080373,0.001001,-0.022420,-0.002240
16.090413,-0.017088,-0.013838,0.002024
16.100423,0.011674,-0.019271,0.002078
16.110463,-0.022420,-0.014888,0.002004
16.120473,-0.002168,-0.014959,0.003128
16.130513,-0.008587,-0.021326,-0.001193
16.140523,-0.000035,-0.012815,-0.000061
16.150563,0.002087,-0.014948,-0.002201
16.160573,-0.006444,-0.019212,0.002028
16.170613,-0.003261,-0.021333,-0.003315
16.180653,-0.000039,-0.014956,0.000997
16.190663,-0.008575,-0.015976,-0.003304
16.200704,0.005274,-0.021386,0.002050
16.210713,-0.000046,-0.014936,-0.003275
16.220754,-0.001107,-0.016026,0.002058
16.240804,-0.000055,-0.017062,-0.005422
16.250826,0.018082,-0.015025,0.003184
16.260867,-0.017113,-0.021298,-0.001216
16.270876,0.010604,-0.020330,0.001001
16.280917,-0.007484,-0.009597,0.002070
16.290957,0.009529,-0.020296,-0.005411
16.311007,-0.000034,-0.010664,-0.003255
16.321017,0.001019,-0.018168,0.002053
16.331057,0.013809,-0.018210,0.002088
16.341067,-0.001106,-0.012796,-0.003268
16.351107,-0.000043,-0.018175,0.004187
16.361117,-0.006443,-0.017061,-0.001167
16.371157,0.025531,-0.019321,0.003184
16.381197,-0.020283,-0.013832,0.003083
16.391207,0.021248,-0.023554,-0.002189
16.401248,-0.009639,-0.018134,0.002024
16.411257,0.018076,-0.015005,-0.001089
16.421298,-0.000060,-0.021353,-0.001169
16.431307,-0.001116,-0.021380,0.005237
16.451357,0.006348,-0.019264,0.004199
16.461398,-0.005392,-0.018097,-0.008646
16.471407,0.014875,-0.018213,0.002091
16.481448,-0.016044,-0.020234,-0.001208
16.491488,0.006331,-0.021364,-0.003288
16.501498,-0.017113,-0.020220,-0.003348
16.521548,-0.010711,-0.019188,-0.000120
16.531588,-0.003262,-0.023484,-0.000120
16.541598,-0.003268,-0.023464,-0.004393
16.551638,0.001009,-0.022445,0.003101
16.561648,0.006318,-0.026709,-0.002245
16.571688,-0.001121,-0.021365,0.002032
16.591738,-0.006449,-0.021353,0.003086
16.601779,-0.000085,-0.029892,-0.002278
16.611788,-0.009658,-0.023458,-0.001206
16.621829,-0.020303,-0.017001,-0.004409
16.631838,0.012724,-0.024609,0.000987
16.641879,-0.025657,-0.025522,-0.005533
16.661929,0.006319,-0.024558,-0.005440
16.671938,-0.022433,-0.019155,0.000916
16.681979,0.000982,-0.027744,-0.005470
16.692019,-0.012839,-0.019191,0.002010
16.702029,-0.017124,-0.023419,-0.004431
16.712069,0.024446,-0.024642,-0.000049
16.722079,-0.024565,-0.016992,-0.003353
16.732119,0.005254,-0.024554,-0.005443
16.742129,-0.002192,-0.021347,-0.001175
16.752169,-0.003256,-0.020270,-0.002241
16.762179,0.001010,-0.020294,-0.000093
16.772219,0.004202,-0.023518,0.002037
16.782229,-0.013929,-0.024497,-0.004427
16.802310,-0.011783,-0.020242,-0.002265
16.812319,0.002078,-0.020303,0.000978
16.822360,-0.016062,-0.024485,-0.005501
16.832369,0.010589,-0.025670,0.000976
16.842410,-0.022444,-0.021276,-0.002299
16.852419,0.014842,-0.028883,-0.000096
16.872469,0.010589,-0.024592,-0.001155
16.872469,0.010589,-0.024592,-0.001155
16.882510,0.011657,-0.025678,0.002047
16.892550,-0.027774,-0.022331,-0.001251
16.902560,0.028709,-0.024656,-0.000037
16.912600,-0.001111,-0.018166,0.003116
16.922610,-0.016066,-0.027704,-0.002312
16.942660,-0.027756,-0.017002,0.000911
16.952700,0.032960,-0.027863,-0.002177
16.962710,-0.025630,-0.019145,0.000907
16.972750,0.011644,-0.025638,-0.006498
16.982760,0.001003,-0.022425,-0.001172
16.992800,-0.016056,-0.024505,-0.001229
17.012850,-0.020314,-0.021278,-0.003361
17.022891,0.009516,-0.026719,-0.002237
17.032900,-0.004331,-0.023470,-0.002259
17.042941,0.007396,-0.024597,0.002041
17.052950,-0.010717,-0.021324,-0.000130
17.062991,0.006336,-0.021379,-0.000084
17.093081,0.015899,-0.031012,-0.002239
17.103091,-0.009641,-0.020280,0.004150
17.113131,-0.019249,-0.022354,-0.002295
17.123141,0.019095,-0.032095,-0.001167
17.133181,-0.027765,-0.021284,0.003027
17.143191,-0.002211,-0.026671,-0.004405
17.153231,-0.004345,-0.032044,0.004109
17.163241,-0.018190,-0.022337,-0.006565
17.173281,0.003119,-0.026693,-0.003322
17.183291,-0.023530,-0.029826,-0.000206
17.193331,-0.001157,-0.029868,-0.006554
17.203372,-0.000068,-0.026713,0.003078
17.223422,-0.002237,-0.038438,-0.000188
17.233431,-0.009660,-0.024531,-0.000143
17.243492,-0.004349,-0.028800,-0.004421
17.253501,-0.002225,-0.035245,0.001964
17.263542,-0.001150,-0.027737,-0.005475
17.273551,0.004199,-0.024586,0.002032
17.293602,0.023370,-0.028915,0.000996
17.303642,-0.024547,-0.012741,0.000940
17.313682,0.015879,-0.036336,-0.005469
17.323692,0.004208,-0.022461,0.004178
17.333732,-0.018182,-0.019128,-0.007618
17.343742,0.016984,-0.026769,0.003125
17.353782,-0.029900,-0.020189,-0.001246
17.363792,0.018046,-0.023528,-0.005402
17.373832,-0.013897,-0.017057,0.003086
17.383842,-0.000069,-0.024557,-0.001185
17.393882,-0.004308,-0.017078,0.000976
17.403923,0.006323,-0.025646,-0.001172
17.413932,-0.013901,-0.015969,-0.001182
17.433982,0.009535,-0.019239,-0.003269
17.444023,-0.020304,-0.019152,-0.001215
17.454032,0.007370,-0.034208,0.001995
17.454032,0.007370,-0.034208,0.001995
17.474082,0.006322,-0.026719,-0.000109
17.484123,-0.019269,-0.026600,-0.007657
17.504173,-0.030960,-0.016971,-0.003370
17.504173,-0.030960,-0.016971,-0.003370
17.524223,-0.026710,-0.022330,-0.002316
17.534263,-0.006469,-0.022365,-0.008669
17.534263,-0.006469,-0.022365,-0.008669
17.544273,0.008435,-0.032055,-0.002265
17.554313,-0.011782,-0.022399,0.001998
17.574363,0.000984,-0.032062,0.004124
17.574363,0.000984,-0.032062,0.004124
17.584373,-0.013923,-0.022361,-0.004417
17.594413,0.014854,-0.024611,-0.000075
17.604454,-0.017127,-0.028794,0.003021
17.614463,-0.018201,-0.027687,-0.004454
17.624504,-0.008604,-0.029889,0.003039
17.654563,-0.011799,-0.026655,-0.001227
17.654563,-0.011799,-0.026655,-0.001227
17.664604,-0.017135,-0.029847,-0.000189
17.674613,-0.019262,-0.028777,0.000879
17.684654,-0.012839,-0.018113,-0.000121
17.694664,-0.015015,-0.034125,-0.000203
17.714744,0.006314,-0.028850,-0.001187
17.714744,0.006314,-0.028850,-0.001187
17.724754,-0.032044,-0.025526,-0.000209
17.734794,0.003110,-0.032048,-0.000143
17.744804,-0.001139,-0.027773,0.002002
17.754844,-0.041641,-0.026558,-0.001309
17.764854,0.031879,-0.035351,0.000989
17.794944,-0.016046,-0.020229,-0.002276
17.794944,-0.016046,-0.020229,-0.002276
17.804954,-0.011787,-0.023461,0.000925
17.814994,0.000994,-0.026707,0.000945
17.825035,-0.020308,-0.023449,0.004106
17.835044,-0.004315,-0.018136,-0.001166
17.855094,-0.014987,-0.024519,0.000911
17.865135,-0.009617,-0.009585,0.000996
17.875144,-0.019219,-0.013831,0.002018
17.885185,-0.009653,-0.024551,0.004130
17.895195,-0.027738,-0.011672,0.003073
17.905235,-0.005367,-0.013866,-0.000080
17.935325,-0.011758,-0.016011,0.006301
17.935325,-0.011758,-0.016011,0.006301
17.945335,-0.018176,-0.021305,0.000917
17.955375,-0.013900,-0.019203,0.005212
17.965385,-0.017096,-0.018120,0.004140
17.975425,-0.002180,-0.019231,0.003108
17.995475,-0.002188,-0.023513,0.005224
18.005485,-0.005383,-0.022434,0.005220
18.015525,-0.023522,-0.029851,0.005135
18.025566,0.005274,-0.023542,0.006312
18.035575,-0.024555,-0.018100,0.005188
18.045616,-0.001141,-0.032075,0.008391
18.075675,-0.002202,-0.031009,0.009461
18.075675,-0.002202,-0.031009,0.009461
18.085716,-0.030947,-0.018090,0.007306
18.095726,-0.021377,-0.025591,0.006229
18.105766,0.013798,-0.024638,0.006331
18.115776,-0.052268,-0.016927,0.001912
18.135856,-0.038417,-0.019113,0.003008
18.145866,-0.022436,-0.021301,0.003042
18.155906,-0.009646,-0.022421,0.005208
18.165916,-0.021363,-0.018096,0.001992
18.175956,-0.001104,-0.018187,0.007388
18.185966,-0.018158,-0.015975,0.003079
18.216056,-0.006453,-0.023494,0.004144
18.226097,-0.003229,-0.016049,0.008461
18.236106,-0.014969,-0.019189,0.003072
18.246189,0.015925,-0.028942,0.011657
18.256198,-0.034122,-0.009531,0.006270
18.266239,0.039390,-0.019376,0.005358
18.276249,-0.044808,-0.021259,0.009390
18.286289,0.008493,-0.013926,0.003162
18.296299,-0.001093,-0.017144,0.012734
18.306339,-0.016049,-0.025604,0.005176
18.316349,-0.017092,-0.017057,0.005213
18.326389,-0.005332,-0.007514,0.011700
18.356479,-0.021331,-0.010656,0.009505
18.356479,-0.021331,-0.010656,0.009505
18.366489,0.003139,-0.023525,0.004170
18.376529,-0.013892,-0.021384,0.014815
18.386539,-0.021351,-0.013824,0.002012
18.396579,0.022327,-0.025754,0.010622
18.426670,0.005286,-0.021426,0.010595
18.426670,0.005286,-0.021426,0.010595
18.436679,-0.009653,-0.026708,0.008393
18.446720,-0.021376,-0.026669,0.008360
18.456729,-0.005406,-0.032056,0.007311
18.466770,-0.019250,-0.025583,0.003030
18.496830,0.008432,-0.038509,0.007319
18.496830,0.008432,-0.038509,0.007319
18.506870,-0.036286,-0.022349,0.008340
18.516880,-0.000094,-0.038481,0.007295
18.526920,-0.018194,-0.035249,0.013670
18.536960,-0.035221,-0.020197,0.004080
18.557010,-0.029909,-0.032007,0.013653
18.557010,-0.029909,-0.032007,0.013653
18.567020,-0.011808,-0.032010,0.001952
18.577060,-0.007507,-0.026760,0.018012
18.587070,-0.007530,-0.028840,0.006252
18.597110,0.008495,-0.020394,0.015950
18.607120,-0.016036,-0.025644,0.013721
18.627170,0.017015,-0.023636,0.018095
18.637210,-0.026666,-0.016003,0.014806
18.647251,0.003137,-0.027827,0.010559
18.657260,0.002113,-0.017185,0.019152
18.667301,-0.029869,-0.013822,0.007330
18.677311,0.025542,-0.024742,0.020250
18.697361,0.006365,-0.017163,0.011687
18.707401,-0.023474,-0.020306,0.019067
18.717411,0.004229,-0.018219,0.010608
18.727451,0.011725,-0.009735,0.018146
18.737491,-0.008565,-0.024626,0.019088
18.747501,-0.001087,-0.017164,0.017007
18.777591,0.025553,-0.022621,0.023464
18.787601,0.004242,-0.019338,0.021285
18.797641,-0.023484,-0.021353,0.014789
18.807651,0.030880,-0.020477,0.018148
18.817691,0.001064,-0.012925,0.022374
18.837741,-0.003235,-0.023570,0.018039
18.847782,-0.009598,-0.009646,0.013815
18.857791,0.010620,-0.022537,0.015946
18.867832,-0.006429,-0.021414,0.015904
18.877842,-0.012820,-0.018174,0.012697
18.887882,-0.000027,-0.019304,0.017000
18.917942,0.005285,-0.023577,0.013790
18.917942,0.005285,-0.023577,0.013790
18.927982,-0.010702,-0.021369,0.009483
18.938022,-0.010682,-0.020357,0.021238
18.948032,-0.005360,-0.017120,0.010586
18.958072,0.005300,-0.018238,0.013815
18.978122,-0.010709,-0.025656,0.012668
18.978122,-0.010709,-0.025656,0.012668
18.988132,-0.019214,-0.021387,0.019074
18.998172,-0.017099,-0.020266,0.006266
19.008182,0.006355,-0.024669,0.018060
19.018222,-0.029869,-0.014900,0.009461
19.028232,0.002083,-0.024630,0.012708
19.058322,-0.014941,-0.017124,0.018037
19.058322,-0.014941,-0.017124,0.018037
19.068363,-0.008593,-0.028847,0.008385
19.078373,-0.012805,-0.014990,0.016985
19.088413,0.003172,-0.018241,0.015946
19.098423,-0.022403,-0.016017,0.014817
19.118473,-0.027746,-0.020266,0.013714
19.128513,0.030878,-0.021550,0.019211
19.138523,-0.003210,-0.013954,0.017017
19.148563,0.002119,-0.015049,0.019163
19.158603,-0.002148,-0.017176,0.020209
19.168613,0.002094,-0.023587,0.018054
19.198703,0.011667,-0.030021,0.016982
19.208713,-0.013851,-0.010741,0.022343
19.218753,0.007441,-0.016119,0.015968
19.228763,-0.005362,-0.022500,0.019107
19.238803,-0.007487,-0.017128,0.013785
19.258861,-0.013878,-0.018196,0.018035
19.258861,-0.013878,-0.018196,0.018035
19.268902,-0.018137,-0.013885,0.012703
19.278912,-0.004285,-0.014998,0.012736
19.288952,0.003167,-0.019304,0.014872
19.298962,-0.020266,-0.011732,0.010571
19.309002,0.030869,-0.024754,0.019196
19.349102,0.035148,-0.017277,0.016039
19.359142,-0.004281,-0.017164,0.019135
19.369152,0.022305,-0.036453,0.014844
19.379192,-0.020245,-0.009647,0.021263
19.399242,-0.006448,-0.028894,0.016937
19.399242,-0.006448,-0.028894,0.016937
19.409252,-0.016027,-0.020289,0.010542
19.419292,0.011673,-0.027885,0.016992
19.429302,-0.042661,-0.019160,0.015815
19.439342,0.000991,-0.033160,0.010528
19.449383,-0.028804,-0.019210,0.016921
19.469433,-0.014967,-0.025658,0.015860
19.469433,-0.014967,-0.025658,0.015860
19.479443,-0.009629,-0.019242,0.010564
19.489483,-0.024570,-0.027747,0.012619
19.499493,0.006356,-0.023596,0.016997
19.509533,-0.026654,-0.007424,0.007369
19.519543,0.015916,-0.035375,0.016968
19.549633,-0.005350,-0.017150,0.016995
19.549633,-0.005350,-0.017150,0.016995
19.559673,-0.000071,-0.031015,0.009467
19.569683,-0.019236,-0.024551,0.010513
19.579723,-0.010680,-0.013899,0.010587
19.589733,-0.004302,-0.018176,0.007380
19.609783,-0.017080,-0.012785,0.005233
19.619823,-0.009630,-0.020315,0.011628
19.629833,-0.004288,-0.016066,0.012731
19.639873,-0.016014,-0.014945,0.009499
19.649883,0.001025,-0.022496,0.013783
19.659923,-0.023463,-0.008493,0.005236
19.679974,-0.004303,-0.019249,0.008443
19.679974,-0.004303,-0.019249,0.008443
19.690014,0.010655,-0.007566,0.011744
19.700024,-0.020277,-0.016009,0.011619
19.710064,-0.019242,-0.025608,0.008371
19.720074,0.020233,-0.012937,0.011745
19.730114,-0.019193,-0.009605,0.011652
19.750164,-0.017082,-0.016009,0.009491
19.760204,-0.013889,-0.019238,0.012689
19.770214,-0.001105,-0.021416,0.012714
19.780254,-0.014974,-0.023481,0.007325
19.790264,-0.008559,-0.017105,0.009509
19.800304,-0.035223,-0.023421,0.008338
19.820354,-0.016017,-0.014934,0.007363
19.820354,-0.016017,-0.014934,0.007363
19.830364,-0.024558,-0.019168,0.005183
19.840404,-0.011766,-0.021371,0.010549
19.850414,-0.020303,-0.023464,0.007310
19.860455,-0.024552,-0.019189,0.009455
19.870495,-0.005369,-0.018168,0.006308
19.900555,-0.031984,-0.009558,0.010549
19.900555,-0.031984,-0.009558,0.010549
19.910595,0.006368,-0.013939,0.007429
19.920605,-0.013888,-0.018165,0.011626
19.930645,-0.012822,-0.016013,0.007366
19.940655,-0.005357,-0.014974,0.008460
19.960735,-0.006424,-0.012815,0.004194
19.970745,-0.022391,-0.009594,0.011643
19.980785,-0.025616,-0.013805,0.000932
19.990795,0.004227,-0.016058,0.005277
20.000835,-0.038377,-0.005235,0.004142
20.010845,0.005296,-0.016072,0.007416
20.040935,-0.027717,-0.006353,0.007371
20.040935,-0.027717,-0.006353,0.007371
20.050945,-0.004304,-0.017093,0.004180
20.060986,-0.026665,-0.010623,0.006285
20.071026,0.014889,-0.013952,0.004248
20.081036,-0.027745,-0.015959,0.006257
20.101086,-0.013875,-0.009587,0.004189
20.111126,-0.011757,-0.014938,0.005238
20.121136,-0.021327,-0.007437,0.006315
20.131176,-0.001093,-0.012837,0.005277
20.141186,-0.001075,-0.008585,0.009570
20.151226,-0.029869,-0.012743,0.005198
20.181316,-0.007514,-0.021349,0.003083
20.181316,-0.007514,-0.021349,0.003083
20.191326,-0.023487,-0.019187,0.008390
20.201366,-0.026655,-0.004190,0.000975
20.211376,-0.003233,-0.016034,0.005256
20.221416,-0.008556,-0.013881,0.005252
20.241466,-0.012832,-0.020290,0.008414
20.251515,-0.020301,-0.020240,0.003053
20.261556,0.007451,-0.006457,0.005331
20.271596,-0.010692,-0.016015,0.006304
20.281606,-0.024535,-0.009547,0.003092
20.291646,-0.000009,-0.007511,0.007442
20.311696,-0.029868,-0.010592,0.002004
20.321706,0.003196,-0.006469,0.010660
20.331746,-0.008569,-0.015996,0.000969
20.341756,-0.010677,-0.011753,0.008461
20.351796,-0.013869,-0.008529,0.006331
20.361806,-0.003235,-0.017107,0.006319
20.381886,-0.014916,-0.001045,0.005295
20.391896,-0.017089,-0.015989,0.005218
20.401936,0.011691,-0.015014,0.005302
20.411946,-0.039418,0.003307,0.005248
20.421986,-0.004309,-0.016000,-0.001156
20.431996,-0.004284,-0.010691,0.005279
20.442036,-0.037316,-0.005224,0.000940
20.452046,-0.003230,-0.011737,-0.000064
20.462087,-0.021326,-0.005286,0.003121
20.472127,-0.034133,-0.009496,-0.001207
20.482137,0.004235,-0.010698,0.001029
20.492177,-0.034107,-0.002040,0.003101
20.502187,-0.012828,-0.011685,-0.004364
20.512227,0.001036,-0.014990,0.007409
20.522237,-0.041562,0.001198,0.000959
20.532277,0.018098,-0.008612,0.002146
20.542287,-0.018128,-0.008530,0.009523
20.552327,-0.008557,-0.011725,0.000989
20.562337,-0.004271,-0.006424,0.006367
20.572377,0.003191,-0.006453,0.007456
20.592427,-0.002154,-0.012849,0.008479
20.602467,-0.020260,-0.004211,0.000992
20.612477,-0.006422,-0.012820,0.005263
20.622517,-0.017074,-0.011727,0.007375
20.632527,-0.023481,-0.014900,0.005206
20.642567,-0.020258,-0.006372,0.006323
20.662618,-0.005376,-0.021377,0.007362
20.662618,-0.005376,-0.021377,0.007362
20.672627,-0.018131,-0.007442,0.005256
20.682668,-0.008522,0.000013,0.003181
20.692708,-0.014958,-0.017069,0.006287
20.702718,-0.001091,-0.012842,0.006346
20.712758,-0.018128,-0.005296,0.003129
20.732808,-0.022390,-0.006365,0.006317
20.742818,0.015967,-0.009684,0.004271
20.752858,-0.024495,0.002175,0.008488
20.762868,0.003194,-0.004307,0.005330
20.772908,0.004258,-0.006462,0.008527
20.782948,-0.019182,-0.001021,0.003147
20.802998,-0.012792,-0.004261,0.006354
20.802998,-0.012792,-0.004261,0.006354
20.813008,0.007439,-0.008573,0.001048
20.823048,-0.039422,0.002244,0.004175
20.833058,0.001050,-0.006416,0.001041
20.843098,-0.018125,-0.004228,0.003135
20.853108,-0.020254,-0.002075,0.001002
20.873158,-0.006413,-0.008538,0.003147
20.883199,-0.026643,-0.002075,0.005258
20.893239,-0.007475,-0.006393,0.002086
20.903249,0.005303,-0.010707,0.002100
20.913289,-0.014912,0.000018,0.006368
20.923299,-0.000020,-0.009632,0.004227
20.943349,-0.013869,-0.007451,0.004199
20.953389,-0.008555,-0.013886,0.006320
20.963399,-0.008534,-0.006410,0.006355
20.973439,-0.035172,-0.002037,0.003098
20.983449,0.001019,-0.017090,-0.000078
20.993489,-0.042647,-0.008430,0.005183
21.013539,-0.014954,-0.014928,0.005229
21.013539,-0.014954,-0.014928,0.005229
21.033589,-0.005381,-0.020283,0.002026
21.043629,-0.017054,-0.002096,0.003148
21.053639,-0.019194,-0.004214,0.000995
21.063680,0.003164,-0.014987,0.005279
21.083730,-0.000005,-0.004292,0.004253
21.093770,-0.003217,-0.009621,0.004218
21.103780,0.010656,-0.006493,0.010681
21.113820,-0.003200,-0.004292,0.006380
21.123830,0.011706,-0.011831,0.009590
21.133870,-0.014915,-0.001050,0.006363
21.153920,-0.014918,-0.001040,0.004227
21.163930,-0.006403,-0.005339,0.004230
21.173970,-0.013872,-0.009597,0.006326
21.183980,-0.006413,-0.005309,-0.002179
21.194020,-0.026645,-0.000991,0.002058
21.204060,0.005300,-0.011775,0.002095
21.214070,-0.031961,0.001141,0.006326
21.214070,-0.031961,0.001141,0.006326
21.224110,-0.011732,-0.005322,0.004215
21.244160,-0.021323,-0.004218,0.003126
21.254191,-0.002165,-0.011735,-0.001130
21.264232,-0.014962,-0.015981,0.002019
21.264232,-0.014962,-0.015981,0.002019
21.274241,-0.018131,-0.003135,-0.002201
21.294322,-0.023491,-0.017021,0.001991
21.294322,-0.023491,-0.017021,0.001991
21.304332,-0.009636,-0.017066,0.002029
21.314372,0.001055,-0.007509,0.006377
21.324382,-0.002163,-0.013896,0.004201
21.334422,0.002088,-0.018182,0.004193
21.344432,-0.016014,-0.011710,0.003105
21.374522,-0.003247,-0.017066,-0.002226
21.374522,-0.003247,-0.017066,-0.002226
21.384532,-0.001080,-0.011799,0.011692
21.394572,-0.036271,-0.012702,0.000908
21.404612,-0.004325,-0.022413,-0.000118
21.414622,-0.028795,-0.009543,0.005216
21.444713,-0.016024,-0.012758,-0.001173
21.444713,-0.016024,-0.012758,-0.001173
21.454722,-0.019240,-0.019150,-0.002280
21.464763,-0.017069,-0.006357,0.000991
21.474772,-0.016019,-0.010617,-0.002231
21.484813,-0.010700,-0.015989,0.000963
21.504863,-0.004287,-0.008530,-0.000052
21.514903,-0.009646,-0.020265,0.000946
21.524913,0.001040,-0.010693,0.002089
21.534953,-0.006396,-0.001052,0.001046
21.544963,-0.014953,-0.013855,0.004166
21.555003,-0.017090,-0.012755,-0.001176
21.575053,0.005306,-0.009639,0.002105
21.575053,0.005306,-0.009639,0.002105
21.585063,-0.028830,-0.018051,-0.002302
21.595103,0.013816,-0.016079,0.003167
21.605143,-0.027728,-0.007396,0.002025
21.615153,0.016993,-0.023565,0.003140
21.625193,-0.033077,-0.015932,0.004106
21.655253,-0.022444,-0.021276,-0.002299
21.655253,-0.022444,-0.021276,-0.002299
21.665294,0.006362,-0.014997,0.005288
21.675303,-0.020285,-0.012749,-0.000116
21.685344,-0.008595,-0.024530,-0.001208
21.695353,0.004224,-0.016048,0.003140
21.715434,0.010586,-0.025660,-0.001160
21.715434,0.010586,-0.025660,-0.001160
21.725444,-0.017093,-0.015974,0.002014
21.735484,-0.020303,-0.018079,-0.002278
21.745494,-0.007518,-0.021339,0.000946
21.755534,-0.007509,-0.017058,-0.001170
21.765544,-0.007518,-0.021339,0.000946
21.795634,-0.036273,-0.014848,0.003034
21.795634,-0.036273,-0.014848,0.003034
21.805674,-0.012857,-0.022365,-0.004414
21.815684,-0.007505,-0.014917,-0.002228
21.825724,-0.020297,-0.015943,-0.002268
21.835734,-0.004331,-0.024548,-0.000128
21.855784,-0.014965,-0.014892,-0.002248
21.855784,-0.014965,-0.014892,-0.002248
21.865825,0.005286,-0.014963,-0.001124
21.875834,0.008491,-0.013921,0.002094
21.885875,-0.016028,-0.015977,0.002017
21.895884,-0.003243,-0.017082,0.000978
21.905925,-0.004312,-0.017068,-0.001161
21.936015,-0.007503,-0.016000,0.000972
21.936015,-0.007503,-0.016000,0.000972
21.946025,0.022334,-0.021467,0.007438
21.956065,-0.035193,-0.008434,0.000931
21.966075,0.010610,-0.018194,0.001011
21.976115,-0.009636,-0.017066,0.002029
21.996165,-0.010690,-0.012791,0.002046
21.996165,-0.010690,-0.012791,0.002046
22.006205,-0.010712,-0.019183,-0.001189
22.016215,-0.010715,-0.019173,-0.003325
22.026255,-0.006418,-0.010679,0.004205
22.036265,-0.029908,-0.023392,-0.001262
22.046306,0.004196,-0.025654,0.002027
22.076365,-0.004332,-0.026700,0.003066
22.076365,-0.004332,-0.026700,0.003066
22.086406,-0.038422,-0.014786,-0.008722
22.096415,0.019104,-0.028891,-0.001152
22.106456,-0.012842,-0.019181,-0.000126
22.116496,0.001004,-0.021352,-0.002235
22.136546,-0.009665,-0.026667,-0.000153
22.146556,-0.004310,-0.018151,0.002039
22.156596,0.005290,-0.014973,0.001012
22.166606,-0.014970,-0.015955,-0.003321
22.176646,0.005280,-0.020328,0.004191
22.186656,-0.007493,-0.011723,-0.000076
22.216746,-0.000056,-0.020291,-0.000096
22.216746,-0.000056,-0.020291,-0.000096
22.226786,-0.024540,-0.009532,-0.000113
22.236796,0.018060,-0.023574,0.004211
22.246850,-0.040550,-0.016945,-0.002329
22.256859,0.012754,-0.016086,0.005300
22.276909,-0.003265,-0.025630,0.002006
22.286950,-0.005371,-0.017085,0.003109
22.296959,0.001027,-0.016038,0.003132
22.307000,0.003121,-0.028855,0.002009
22.317040,0.002094,-0.016046,0.004203
22.327050,0.003157,-0.016039,0.002069
22.357140,0.001018,-0.019241,0.003116
22.357140,0.001018,-0.019241,0.003116
22.367150,0.004204,-0.023523,0.003105
22.377190,-0.003235,-0.014951,0.002057
22.387200,-0.000049,-0.020311,0.004177
22.397240,-0.011771,-0.015971,-0.002245
22.417290,-0.026668,-0.010613,0.004149
22.427330,0.006346,-0.017103,-0.001132
22.437340,0.008484,-0.017130,0.003147
22.447381,-0.006452,-0.019187,-0.003313
22.457390,-0.010701,-0.018140,0.004157
22.467431,0.002086,-0.017099,0.000993
22.487481,-0.009620,-0.009575,-0.001140
22.497490,0.006347,-0.018181,0.001000
22.507531,-0.007510,-0.018131,-0.000107
22.517540,-0.001105,-0.013875,-0.001137
22.527581,-0.011771,-0.017049,-0.000113
22.537621,0.005275,-0.019235,-0.001145
22.567681,-0.017104,-0.020250,0.003062
22.567681,-0.017104,-0.020250,0.003062
22.577721,-0.006463,-0.025615,0.000929
22.587731,0.021265,-0.019297,0.001036
22.597771,-0.039465,-0.011624,0.000904
22.607781,0.009510,-0.029933,-0.000115
22.637871,-0.019249,-0.024510,0.001967
22.637871,-0.019249,-0.024510,0.001967
22.647912,-0.002205,-0.025613,-0.002264
22.657921,-0.012832,-0.014904,-0.001174
22.667962,-0.013924,-0.024512,-0.001223
22.677971,0.003139,-0.023525,0.004170
22.688012,-0.016035,-0.017030,-0.001193
22.698021,0.004208,-0.020304,-0.000084
22.708062,0.004208,-0.021383,0.002047
22.718071,0.005297,-0.011765,-0.000041
22.728112,-0.000051,-0.021384,0.005240
22.738152,-0.014968,-0.018116,0.002009
22.748162,0.011683,-0.016067,0.002093
22.768212,-0.005377,-0.017064,-0.001164
22.778252,0.001033,-0.013902,0.003142
22.788262,-0.026688,-0.014859,-0.001212
22.798302,0.008478,-0.018188,0.001006
22.808312,-0.020289,-0.015968,0.003073
22.818352,0.005290,-0.011744,-0.004314
22.838402,-0.018158,-0.014897,0.000948
22.838402,-0.018158,-0.014897,0.000948
22.848443,0.005287,-0.016041,0.001007
22.858452,-0.010672,-0.007461,0.004208
22.868493,0.005291,-0.013900,-0.000051
22.878502,0.001005,-0.024586,0.004159
22.888543,-0.004296,-0.013884,0.003127
22.918602,-0.011771,-0.015971,-0.002245
22.928643,0.015944,-0.019305,0.006362
22.938683,-0.010718,-0.021319,-0.001199
22.948693,0.020202,-0.019304,0.003169
22.958733,0.002103,-0.011764,0.002087
22.978783,-0.014969,-0.018111,0.000941
22.988793,-0.004299,-0.014952,0.003122
22.998833,-0.002194,-0.023493,0.000951
23.008843,-0.011784,-0.022393,0.000930
23.018883,-0.005368,-0.014939,0.000983
23.028893,-0.016047,-0.022380,0.000918
23.058983,0.001004,-0.022430,-0.000103
23.058983,0.001004,-0.022430,-0.000103
23.069024,-0.022439,-0.021291,0.000905
23.079033,-0.003251,-0.020285,0.000963
23.089074,0.002073,-0.020287,-0.002227
23.099083,-0.004326,-0.024564,0.003076
23.119133,0.003145,-0.020311,0.002049
23.129174,-0.005376,-0.018148,0.002036
23.139214,0.003154,-0.018185,0.004196
23.149224,-0.003245,-0.019227,0.003105
23.159264,0.013804,-0.019273,0.001015
23.169274,-0.009624,-0.012794,0.002049
23.189324,-0.003239,-0.019248,0.007377
23.189324,-0.003239,-0.019248,0.007377
23.199364,-0.008582,-0.020263,-0.000120
23.209374,-0.000045,-0.018170,0.003119
23.219414,-0.004292,-0.011743,0.002069
23.229424,0.012721,-0.024599,-0.001149
23.239464,-0.025608,-0.012752,0.004142
23.259544,0.021261,-0.023594,0.006356
23.259544,0.021261,-0.023594,0.006356
23.269585,-0.020280,-0.013843,0.005220
23.279594,0.025528,-0.018233,-0.001084
23.289635,-0.012826,-0.013847,0.000967
23.299644,0.012730,-0.022473,0.000997
23.309685,-0.012820,-0.011711,0.000977
23.339775,-0.024553,-0.014876,0.000930
23.339775,-0.024553,-0.014876,0.000930
23.349785,0.015916,-0.023526,-0.004340
23.359825,-0.012844,-0.019176,-0.001194
23.369835,-0.022464,-0.027673,-0.004466
23.379875,0.005258,-0.024570,-0.002238
23.399925,0.007365,-0.033115,-0.003341
23.409935,-0.008575,-0.015976,-0.003304
23.419975,-0.004314,-0.015985,-0.004360
23.429985,-0.008612,-0.028786,-0.004433
23.440025,-0.001130,-0.024569,0.002017
23.450066,-0.003239,-0.013863,-0.002211
23.480125,-0.010708,-0.015964,-0.004378
23.480125,-0.010708,-0.015964,-0.004378
23.490166,-0.010723,-0.022382,-0.002272
23.500175,-0.011815,-0.030912,-0.004452
23.510216,-0.028819,-0.014852,-0.001218
23.520225,0.007387,-0.025644,-0.002237
23.530266,-0.016044,-0.019156,-0.003340
23.540276,0.004225,-0.012819,-0.002185
23.550316,-0.004327,-0.019173,-0.007580
23.560356,-0.008596,-0.026681,0.001986
23.570366,-0.018168,-0.014867,-0.005462
23.580406,0.024468,-0.016093,-0.001077
23.590416,-0.020305,-0.018074,-0.003346
23.610466,0.011673,-0.016037,-0.004316
23.620506,-0.007516,-0.020266,-0.000117
23.630516,0.002053,-0.025612,-0.005457
23.640556,-0.000077,-0.023454,-0.008657
23.650597,0.001007,-0.020284,-0.002230
23.660606,-0.014994,-0.022343,-0.007625
23.690697,-0.000077,-0.025610,-0.004394
23.700706,0.018064,-0.019276,-0.001109
23.710747,-0.019243,-0.015911,-0.009742
23.720756,0.038288,-0.027876,-0.003231
23.730797,-0.009632,-0.012769,-0.003292
23.740807,0.000994,-0.025629,-0.001187
23.750847,-0.000077,-0.025610,-0.004394
23.760887,0.010599,-0.018159,-0.006466
23.770897,0.004198,-0.021352,-0.004362
23.780937,0.010595,-0.021378,-0.003276
23.790947,0.002074,-0.018136,-0.005421
23.800987,0.001000,-0.023493,-0.001177
23.821037,-0.003261,-0.021333,-0.003315
23.831047,0.003135,-0.023510,0.000966
23.841087,0.011653,-0.022434,-0.006483
23.851128,-0.002178,-0.017080,-0.000087
23.861137,-0.001137,-0.022393,-0.006518
23.871178,0.019118,-0.023552,-0.001127
23.891228,-0.009671,-0.024496,-0.007620
23.891228,-0.009671,-0.024496,-0.007620
23.901237,0.005265,-0.024590,0.002035
23.911278,-0.003242,-0.013852,-0.004347
23.921287,-0.000076,-0.023459,-0.007589
23.931328,-0.011772,-0.017044,-0.001181
23.941338,-0.001127,-0.017038,-0.009698
23.961418,-0.021381,-0.021269,-0.004433
23.971428,0.015921,-0.019234,-0.008593
23.981468,-0.007514,-0.018120,-0.002243
23.991478,-0.005411,-0.024499,-0.009745
24.001518,0.008463,-0.020293,-0.005414
24.011528,-0.007505,-0.013839,-0.004359
24.031578,0.018042,-0.026747,-0.002213
24.041618,-0.013908,-0.014871,-0.007586
24.051659,0.006334,-0.020296,-0.003283
24.061668,0.007413,-0.014955,-0.004323
24.071709,0.009540,-0.014947,-0.007522
24.081718,-0.005377,-0.017064,-0.001164
24.101768,-0.000047,-0.014931,-0.004344
24.101768,-0.000047,-0.014931,-0.004344
24.111809,-0.007535,-0.023440,-0.006541
24.121818,0.013804,-0.017117,-0.003247
24.131859,-0.004298,-0.012801,-0.000072
24.141869,-0.002191,-0.017039,-0.008632
24.151909,0.000997,-0.023483,-0.003313
24.171959,0.012711,-0.025647,-0.005427
24.181999,-0.008591,-0.021311,-0.004397
24.192009,0.004204,-0.018138,-0.006483
24.202049,0.010601,-0.020320,-0.001135
24.212059,-0.006465,-0.021302,-0.007596
24.222099,0.010609,-0.014960,-0.005383
24.242149,-0.002209,-0.024525,-0.006531
24.242149,-0.002209,-0.024525,-0.006531
24.252184,-0.002185,-0.014904,-0.008622
24.262224,-0.000050,-0.018155,-0.000086
24.272265,-0.016070,-0.025538,-0.008711
24.282274,0.017005,-0.014986,-0.004297
24.292315,-0.019228,-0.011649,-0.007586
24.312365,0.005294,-0.011754,-0.002177
24.322374,-0.008580,-0.013805,-0.010771
24.332415,0.007396,-0.021363,-0.004353
24.342425,-0.005387,-0.018112,-0.005442
24.352465,-0.007511,-0.017052,-0.002238
24.362505,0.002068,-0.021350,-0.003300
24.382555,0.001020,-0.016017,-0.001141
24.382555,0.001020,-0.016017,-0.001141
24.392565,-0.008596,-0.020217,-0.009733
24.402605,0.004187,-0.026702,-0.002251
24.412615,-0.035232,-0.019083,-0.005529
24.422655,0.006313,-0.024538,-0.009713
24.432665,0.002084,-0.016016,-0.002206
24.452715,0.024422,-0.031029,-0.004352
24.462755,-0.038410,-0.012670,-0.004439
24.472796,0.011652,-0.020278,-0.010746
24.482805,-0.008582,-0.019185,-0.002251
24.492846,-0.018189,-0.020186,-0.009760
24.502855,0.005267,-0.019210,-0.006486
24.522906,-0.034173,-0.019066,-0.009799
24.532946,0.023383,-0.022493,-0.002178
24.542956,-0.027748,-0.009486,-0.007599
24.552996,-0.006463,-0.020229,-0.008659
24.563036,0.004213,-0.017091,-0.002206
24.573046,-0.014985,-0.019139,-0.007609
24.593096,0.014871,-0.016047,-0.004308
24.603136,-0.023497,-0.013771,-0.007608
24.613146,0.021260,-0.019282,-0.002169
24.623186,-0.012852,-0.019151,-0.006535
24.633196,0.008451,-0.025643,-0.003303
24.643236,-0.016024,-0.012758,-0.001173
24.663286,-0.008600,-0.024514,-0.004413
24.673327,-0.012849,-0.018083,-0.006530
24.683336,-0.004345,-0.023425,-0.011873
24.693377,-0.009673,-0.027720,-0.003363
24.703386,-0.027777,-0.018014,-0.010844
24.713427,-0.001145,-0.022367,-0.011859
24.733477,-0.026736,-0.024400,-0.016213
24.743487,0.020163,-0.028875,-0.005422
24.753527,-0.052275,-0.014751,-0.006624
24.763537,0.029743,-0.031021,-0.009678
24.773577,-0.024572,-0.020201,-0.002300
24.783617,-0.019252,-0.018037,-0.011889
24.803667,-0.023519,-0.021242,-0.008711
24.813677,-0.011800,-0.025572,-0.004426
24.813677,-0.011800,-0.025572,-0.004426
24.833727,-0.013936,-0.024477,-0.008700
24.843767,-0.006453,-0.018109,-0.005445
24.853777,-0.011774,-0.015961,-0.004381
24.863817,-0.007539,-0.023425,-0.009746
24.873858,-0.023504,-0.018058,-0.004423
24.883867,-0.008597,-0.022368,-0.006539
24.893908,-0.014988,-0.021285,-0.005483
24.903917,-0.004330,-0.021319,-0.005454
24.913958,-0.019252,-0.022344,-0.004432
24.913958,-0.019252,-0.022344,-0.004432
24.923968,0.003124,-0.024552,-0.004380
24.954058,0.010590,-0.022441,-0.004350
24.954058,0.010590,-0.022441,-0.004350
24.974108,-0.014999,-0.025556,-0.005503
24.984148,0.018059,-0.019261,-0.004314
24.994158,-0.006452,-0.020265,-0.001182
25.014208,-0.008615,-0.029854,-0.004438
25.024248,0.003128,-0.024568,-0.001176
25.024248,0.003128,-0.024568,-0.001176
25.034258,-0.007523,-0.020246,-0.004389
25.044298,-0.000091,-0.032028,-0.002288
25.054308,-0.003279,-0.025584,-0.007608
25.064348,-0.000066,-0.022411,-0.003311
25.094439,0.005261,-0.022424,-0.004364
25.094439,0.005261,-0.022424,-0.004364
25.104448,-0.012862,-0.024506,-0.003356
25.114489,-0.017133,-0.024466,-0.008709
25.124499,0.008467,-0.019230,-0.004340
25.134539,-0.035240,-0.019058,-0.010870
25.164599,-0.032056,-0.023335,-0.011949
25.164599,-0.032056,-0.023335,-0.011949
25.174639,0.009526,-0.021364,-0.005416
25.184679,-0.022455,-0.020162,-0.011908
25.194689,-0.000076,-0.022381,-0.009720
25.204729,-0.022449,-0.020183,-0.007635
25.234789,-0.007543,-0.026644,-0.006556
25.234789,-0.007543,-0.026644,-0.006556
25.244829,-0.023531,-0.025514,-0.008731
25.254860,-0.016046,-0.019151,-0.004408
25.264900,-0.007535,-0.022362,-0.008672
25.274910,-0.020329,-0.023383,-0.009781
25.294991,-0.029912,-0.020148,-0.009792
25.294991,-0.029912,-0.020148,-0.009792
25.305000,-0.012860,-0.025589,-0.000157
25.315041,-0.036301,-0.017992,-0.009799
25.325051,0.004185,-0.025619,-0.005451
25.335091,-0.039489,-0.018011,-0.003399
25.345101,-0.009674,-0.024486,-0.009756
25.375191,-0.002220,-0.028797,-0.006552
25.375191,-0.002220,-0.028797,-0.006552
25.385231,-0.046966,-0.024400,-0.002382
25.395241,-0.012880,-0.027679,-0.009780
25.405281,-0.007543,-0.028800,-0.002294
25.415291,-0.037383,-0.024401,-0.008764
25.435341,-0.019246,-0.020208,-0.004422
25.435341,-0.019246,-0.020208,-0.004422
25.445381,-0.006479,-0.026642,-0.007621
25.455391,0.002048,-0.029904,-0.001204
25.465431,-0.016054,-0.021281,-0.005486
25.475441,-0.002217,-0.028807,-0.004415
25.485481,-0.025654,-0.024454,-0.005528
25.505531,-0.028846,-0.023386,-0.003395
25.505531,-0.028846,-0.023386,-0.003395
25.515572,0.018034,-0.027800,-0.005423
25.525582,-0.024552,-0.012725,-0.002264
25.535622,-0.003273,-0.024527,-0.005466
25.545632,0.013794,-0.021393,-0.002200
25.555672,-0.040545,-0.013731,-0.004450
25.585762,0.001003,-0.019196,-0.006497
25.585762,0.001003,-0.019196,-0.006497
25.595772,-0.012844,-0.018098,-0.003326
25.605812,-0.016056,-0.022349,-0.005491
25.615822,0.013786,-0.023524,-0.003278
25.625862,-0.023507,-0.019126,-0.004428
25.645912,-0.010707,-0.015969,-0.003310
25.645912,-0.010707,-0.015969,-0.003310
25.655922,0.002046,-0.028821,-0.004404
25.665962,0.006352,-0.013889,-0.003253
25.675972,-0.026704,-0.018038,-0.006568
25.686012,0.030823,-0.029992,-0.002193
25.696053,-0.022418,-0.009508,-0.006516
25.726113,-0.016055,-0.020198,-0.008686
25.726113,-0.016055,-0.020198,-0.008686
25.736153,-0.013926,-0.022351,-0.006554
25.746163,-0.010737,-0.024492,-0.007623
25.756203,-0.008603,-0.024504,-0.006549
25.766213,-0.032053,-0.023345,-0.009813
25.786293,-0.026706,-0.019111,-0.005505
25.796303,-0.012872,-0.026626,-0.006571
25.806343,0.023371,-0.026764,-0.002198
25.816353,-0.027764,-0.018055,-0.002299
25.826393,0.007371,-0.030979,-0.003331
25.836403,-0.003261,-0.022411,-0.001183
25.866493,-0.016052,-0.021286,-0.004418
25.866493,-0.016052,-0.021286,-0.004418
25.876503,0.004182,-0.027765,-0.003324
25.886543,-0.033094,-0.019110,-0.001250
25.896584,0.000976,-0.029880,-0.005480
25.906593,-0.020315,-0.023429,-0.000167
25.936684,-0.004330,-0.022397,-0.003323
25.936684,-0.004330,-0.022397,-0.003323
25.946694,-0.010755,-0.033051,-0.004459
25.956734,-0.026710,-0.022330,-0.002316
25.966744,0.002058,-0.023471,-0.006515
25.976784,-0.016067,-0.025548,-0.006575
25.986794,-0.019260,-0.024475,-0.005510
25.996834,0.002064,-0.022413,-0.004373
26.006874,-0.008603,-0.025582,-0.004418
26.016884,-0.011795,-0.023436,-0.004416
26.026924,-0.008581,-0.017034,-0.005445
26.036934,-0.009668,-0.023428,-0.007615
26.046974,0.008464,-0.019220,-0.006477
26.067024,-0.006456,-0.019177,-0.005450
26.067024,-0.006456,-0.019177,-0.005450
26.077034,-0.009644,-0.014884,-0.007575
26.087074,-0.013919,-0.020220,-0.005475
26.097115,0.010575,-0.027780,-0.004375
26.107124,-0.017099,-0.014880,-0.003322
26.117165,-0.011789,-0.019144,-0.008669
26.147225,-0.001131,-0.020257,-0.006508
26.147225,-0.001131,-0.020257,-0.006508
26.157265,-0.011805,-0.026635,-0.005500
26.167275,-0.002223,-0.028787,-0.008688
26.177315,-0.012848,-0.021317,-0.000136
26.187325,-0.018215,-0.028720,-0.011937
26.207405,-0.012860,-0.023433,-0.004419
26.207405,-0.012860,-0.023433,-0.004419
26.217415,0.005242,-0.028826,-0.005463
26.227455,-0.009666,-0.025589,-0.002284
26.237465,-0.008613,-0.025552,-0.010827
26.247505,0.013778,-0.028884,0.000970
26.257536,-0.022472,-0.027648,-0.009807
26.287626,0.010552,-0.036324,-0.004416
26.287626,0.010552,-0.036324,-0.004416
26.297667,-0.022445,-0.022349,-0.001236
26.307677,0.010572,-0.026692,-0.008643
26.317717,-0.005395,-0.024550,0.000937
26.327727,-0.004346,-0.026654,-0.006547
26.337767,0.010574,-0.029932,-0.001181
26.347777,-0.026704,-0.020194,-0.002306
26.357817,0.011627,-0.034202,-0.002266
26.367827,-0.004340,-0.026674,-0.002275
26.377867,-0.006464,-0.023458,-0.003333
26.387877,0.003118,-0.028844,-0.000128
26.397917,-0.012864,-0.023423,-0.006556
26.417967,-0.023526,-0.026607,-0.003396
26.417967,-0.023526,-0.026607,-0.003396
26.428007,0.011639,-0.033164,0.004148
26.438017,-0.017126,-0.025565,-0.002305
26.448057,0.004182,-0.028843,-0.001193
26.458067,-0.009674,-0.028793,-0.002299
26.468107,-0.005414,-0.028796,-0.004424
26.488157,-0.012890,-0.031956,-0.008733
26.488157,-0.012890,-0.031956,-0.008733
26.498167,-0.006491,-0.035221,-0.000185
26.508208,-0.012863,-0.024501,-0.004424
26.518248,-0.006491,-0.031992,-0.005510
26.528258,-0.008603,-0.026660,-0.002286
26.538298,-0.024611,-0.029772,-0.010891
26.568358,-0.001166,-0.033072,-0.006569
26.568358,-0.001166,-0.033072,-0.006569
26.578398,-0.017113,-0.020220,-0.003348
26.588408,-0.000095,-0.028783,-0.010819
26.598448,0.000993,-0.026702,-0.000124
26.608488,-0.016060,-0.021261,-0.009759
26.628538,-0.025623,-0.017014,0.001985
26.638548,0.018039,-0.026737,-0.004349
26.648588,-0.000064,-0.023494,-0.000111
26.658598,-0.013919,-0.020220,-0.005475
26.668638,0.022299,-0.028897,-0.002211
26.678648,-0.023502,-0.018063,-0.003355
26.708739,-0.012859,-0.023438,-0.003351
26.708739,-0.012859,-0.023438,-0.003351
26.718779,-0.008596,-0.023452,-0.003339
26.728789,-0.016059,-0.024495,-0.003365
26.738829,0.000990,-0.024540,-0.005454
26.748839,-0.009652,-0.021322,-0.001196
26.768889,-0.001141,-0.024534,-0.005460
26.778929,-0.000092,-0.033101,-0.001225
26.788939,-0.011796,-0.023431,-0.005485
26.798979,0.000988,-0.026686,-0.003328
26.809019,-0.003278,-0.027741,-0.003345
26.819029,-0.001144,-0.025602,-0.005465
26.849119,0.006310,-0.029913,-0.002260
26.849119,0.006310,-0.029913,-0.002260
26.859129,-0.012887,-0.031966,-0.006596
26.869169,-0.001172,-0.035208,-0.006579
26.879179,0.005248,-0.028846,-0.001190
26.889219,-0.009690,-0.031976,-0.006587
26.909270,-0.000096,-0.030934,-0.007624
26.919310,-0.015005,-0.027692,-0.005514
26.929320,0.015899,-0.029934,-0.004371
26.939360,-0.011812,-0.028766,-0.006578
26.949370,0.004180,-0.025604,-0.008655
26.959410,-0.001153,-0.028805,-0.005481
26.989470,0.009501,-0.029903,-0.006524
26.999510,-0.024591,-0.022296,-0.010856
27.009550,0.019106,-0.025667,-0.005410
27.019560,-0.028848,-0.021225,-0.008726
27.029600,0.003102,-0.028794,-0.010810
27.049650,-0.022448,-0.016953,-0.012961
27.049650,-0.022448,-0.016953,-0.012961
27.059660,0.014828,-0.030993,-0.005447
27.069700,-0.028852,-0.023366,-0.007668
27.079710,0.003104,-0.027721,-0.011873
27.089750,0.008453,-0.024570,-0.004366
27.099760,-0.025665,-0.025497,-0.010874
27.119841,-0.007534,-0.024518,-0.004410
27.129851,-0.009686,-0.028757,-0.009777
27.139891,0.006305,-0.029897,-0.005465
27.149901,-0.011810,-0.025542,-0.010836
27.159941,-0.008619,-0.027688,-0.010837
27.169951,0.005222,-0.034151,-0.008693
27.190001,0.003106,-0.028804,-0.008673
27.200041,-0.011819,-0.027667,-0.012982
27.210051,-0.005423,-0.026615,-0.014028
27.220091,-0.011818,-0.027672,-0.011914
27.230131,-0.001166,-0.026609,-0.018289
27.240141,-0.002210,-0.023442,-0.009731
27.260230,-0.001150,-0.022352,-0.015064
27.260230,-0.001150,-0.022352,-0.015064
27.270270,0.010582,-0.023494,-0.007559
27.280280,-0.009696,-0.027649,-0.018317
27.290320,0.023373,-0.021384,-0.010719
27.300330,0.001003,-0.017040,-0.010760
27.310371,0.007363,-0.026647,-0.016129
27.330421,-0.016055,-0.014813,-0.018274
27.340461,0.019089,-0.026690,-0.015028
27.350471,-0.009657,-0.015922,-0.013989
27.360511,-0.004347,-0.021264,-0.017204
27.370521,-0.007539,-0.020196,-0.015071
27.380561,0.005246,-0.018066,-0.022503
27.400611,-0.010735,-0.016956,-0.020406
27.410621,0.007370,-0.022360,-0.019313
27.420661,-0.012866,-0.019105,-0.016149
27.430701,-0.003283,-0.020184,-0.020401
27.440711,0.010591,-0.014905,-0.017133
27.450751,-0.005412,-0.018031,-0.022533
27.470801,-0.004340,-0.018055,-0.018257
27.470801,-0.004340,-0.018055,-0.018257
27.480811,0.008420,-0.026620,-0.022535
27.490851,-0.001167,-0.024453,-0.022551
27.500861,-0.002230,-0.023381,-0.022549
27.510902,-0.004365,-0.022286,-0.026823
27.520942,0.010554,-0.024481,-0.024656
27.540992,0.004148,-0.026580,-0.027888
27.551002,0.000950,-0.028721,-0.024702
27.561042,-0.019285,-0.020087,-0.030058
27.571052,0.010559,-0.021267,-0.026777
27.581092,0.006283,-0.024441,-0.030008
27.591102,-0.017160,-0.023302,-0.028999
27.611152,0.009476,-0.026593,-0.028941
27.611152,0.009476,-0.026593,-0.028941
27.621192,-0.010764,-0.022250,-0.030045
27.631232,0.022268,-0.025566,-0.028901
27.641242,0.007357,-0.020163,-0.032121
27.651282,0.004163,-0.020163,-0.029994
27.661292,-0.001190,-0.026533,-0.034312
27.681342,-0.000108,-0.020124,-0.035347
27.691382,-0.001186,-0.024392,-0.035370
27.701392,0.002007,-0.025465,-0.036434
27.711433,-0.006518,-0.024364,-0.037521
27.721473,0.002001,-0.026523,-0.038576
27.731483,-0.004382,-0.021152,-0.040704
27.751533,0.001995,-0.027581,-0.040717
27.751533,0.001995,-0.027581,-0.040717
27.761573,-0.010788,-0.024330,-0.041805
27.771583,0.003060,-0.026506,-0.042845
27.781623,0.011581,-0.028670,-0.042832
27.791633,0.003066,-0.024370,-0.042835
27.801673,0.000921,-0.028630,-0.043930
27.821723,0.011589,-0.024388,-0.044948
27.831763,-0.003347,-0.027523,-0.049277
27.841773,0.010526,-0.022238,-0.047077
27.851813,-0.005462,-0.022181,-0.048190
27.861823,0.005179,-0.026473,-0.051385
27.871863,-0.000150,-0.026455,-0.051400
27.891914,0.004110,-0.026459,-0.053524
27.901923,-0.000152,-0.024294,-0.056731
27.911964,-0.002291,-0.025340,-0.059946
27.922004,0.003031,-0.029644,-0.056747
27.932014,-0.016141,-0.023159,-0.059974
27.942054,0.026469,-0.031846,-0.058829
27.962104,0.010489,-0.027507,-0.062058
27.972114,0.017956,-0.026474,-0.059896
27.982154,0.017947,-0.027521,-0.064173
27.992164,0.001969,-0.025344,-0.062071
28.002204,0.032858,-0.031847,-0.063084
28.012214,-0.000149,-0.018919,-0.064183
28.032294,0.017942,-0.028584,-0.065247
28.042304,0.009424,-0.023197,-0.069518
28.052344,0.025408,-0.023238,-0.071610
28.062354,-0.008687,-0.023163,-0.064226
28.072394,0.006202,-0.028496,-0.075961
28.082404,0.017950,-0.023224,-0.069494
28.102454,0.024316,-0.029617,-0.076984
28.112495,0.022215,-0.023243,-0.068414
28.122504,-0.015098,-0.019858,-0.081320
28.132545,0.036039,-0.031806,-0.073758
28.142585,0.005164,-0.018886,-0.074850
28.152595,0.010465,-0.027431,-0.078080
28.162635,0.028587,-0.027500,-0.075894
28.172645,0.019022,-0.015707,-0.079070
28.182685,0.016867,-0.024243,-0.079116
28.192695,0.022181,-0.029600,-0.079127
28.202735,0.029663,-0.022149,-0.079071
28.212745,0.022208,-0.019989,-0.079081
28.222785,0.023244,-0.029594,-0.081260
28.232825,0.011535,-0.024216,-0.081267
28.242835,0.030712,-0.026409,-0.082292
28.252903,0.011534,-0.025289,-0.080204
28.262913,0.012603,-0.022073,-0.083390
28.272953,0.013653,-0.027411,-0.084481
28.282963,0.021119,-0.025300,-0.084450
28.293004,0.005135,-0.022024,-0.088752
28.313054,0.012602,-0.022068,-0.084458
28.323063,0.010447,-0.029527,-0.086636
28.333104,0.018961,-0.033826,-0.086633
28.343144,0.013656,-0.025265,-0.086607
28.353154,0.023226,-0.033845,-0.085553
28.363194,0.017905,-0.032775,-0.082358
28.383244,0.033889,-0.033895,-0.082319
28.393254,0.008315,-0.029520,-0.086642
28.403294,0.037087,-0.032832,-0.083373
28.413304,0.027512,-0.027467,-0.082306
28.423344,0.010454,-0.026318,-0.087689
28.433384,0.034969,-0.028559,-0.082291
28.443394,0.014723,-0.024196,-0.087667
28.453434,0.022183,-0.027449,-0.082321
28.463444,0.018989,-0.025298,-0.083388
28.473484,0.008325,-0.026321,-0.085559
28.483494,0.027518,-0.023180,-0.085491
28.493535,0.000874,-0.024171,-0.083433
28.503544,0.011516,-0.029540,-0.084497
28.513585,0.021135,-0.018887,-0.085488
28.523594,0.012612,-0.017792,-0.085506
28.533635,0.016834,-0.033834,-0.083434
28.543675,0.015799,-0.022079,-0.084450
28.553685,0.023260,-0.024259,-0.080166
28.563725,0.016840,-0.031699,-0.083424
28.573735,0.025383,-0.026392,-0.082307
28.583775,0.023270,-0.019982,-0.081214
28.593785,0.023244,-0.027437,-0.085523
28.603825,0.006195,-0.029548,-0.079170
28.613835,0.023251,-0.024229,-0.086576
28.623875,0.016855,-0.027437,-0.081267
28.633915,-0.000210,-0.029497,-0.085597
28.643925,0.025377,-0.027449,-0.084449
28.663975,0.016834,-0.031678,-0.087697
28.674015,-0.001271,-0.027353,-0.086658
28.684025,0.008336,-0.023122,-0.084475
28.694066,0.002986,-0.028424,-0.088788
28.704075,0.017904,-0.031697,-0.084489
28.704075,0.017904,-0.031697,-0.084489
28.714116,0.000860,-0.026282,-0.088784
28.744206,0.017905,-0.029546,-0.087684
28.744206,0.017905,-0.029546,-0.087684
28.754216,0.017924,-0.025294,-0.083391
28.764256,0.022166,-0.030628,-0.087677
28.774266,0.026441,-0.027448,-0.085514
28.784306,0.016860,-0.022067,-0.087651
28.804356,0.007264,-0.024177,-0.086620
28.814366,0.016851,-0.023115,-0.091929
28.824406,0.018979,-0.027419,-0.086603
28.834416,0.000866,-0.023068,-0.090905
28.844456,0.010453,-0.024162,-0.091952
28.854496,0.018972,-0.027398,-0.090875
28.884556,0.021103,-0.028478,-0.089806
28.884556,0.021103,-0.028478,-0.089806
28.894597,0.007256,-0.025229,-0.089829
28.904606,0.024304,-0.026348,-0.090856
28.914647,0.017907,-0.027395,-0.090878
28.924656,0.023243,-0.024203,-0.091917
28.944737,0.014718,-0.024181,-0.090872
28.944737,0.014718,-0.024181,-0.090872
28.954747,0.013642,-0.027376,-0.091958
28.964787,0.033896,-0.025301,-0.092961
28.974797,0.018978,-0.025262,-0.090865
28.984837,0.016819,-0.034862,-0.091985
28.994847,0.022187,-0.019923,-0.092967
29.014897,0.024293,-0.030619,-0.090876
29.014897,0.024293,-0.030619,-0.090876
29.024937,-0.001258,-0.016623,-0.097290
29.034947,0.020043,-0.022032,-0.097256
29.044987,0.014711,-0.027390,-0.089819
29.055027,0.000863,-0.019829,-0.098367
29.065037,0.033890,-0.027437,-0.092971
29.095128,0.018980,-0.024189,-0.091928
29.095128,0.018980,-0.024189,-0.091928
29.105137,0.022176,-0.022044,-0.096182
29.115178,0.022180,-0.023132,-0.091914
29.125187,0.027503,-0.026363,-0.089779
29.135228,0.020037,-0.024168,-0.097266
29.165318,0.016842,-0.025240,-0.094076
29.165318,0.016842,-0.025240,-0.094076
29.175328,0.025370,-0.024195,-0.095115
29.185368,0.015767,-0.026285,-0.098356
29.195378,0.023228,-0.028465,-0.094073
29.205418,0.010442,-0.024126,-0.099429
29.235478,0.015758,-0.028410,-0.100503
29.235478,0.015758,-0.028410,-0.100503
29.245518,0.026427,-0.024173,-0.100453
29.255573,0.021092,-0.025214,-0.102609
29.265583,0.022145,-0.030562,-0.101564
29.275622,0.014711,-0.020926,-0.101539
29.285632,0.021092,-0.023058,-0.106872
29.295674,0.024282,-0.027355,-0.103679
29.305683,0.022163,-0.020925,-0.106859
29.315723,0.015771,-0.018759,-0.109003
29.325733,0.017887,-0.024100,-0.110091
29.335774,0.023223,-0.021987,-0.108998
29.345813,0.016830,-0.021971,-0.107947
29.365864,0.033879,-0.019860,-0.114299
29.375874,0.009377,-0.019816,-0.106889
29.385913,0.025330,-0.027303,-0.115426
29.395923,0.023226,-0.020919,-0.108993
29.405964,0.016822,-0.021946,-0.113288
29.415973,0.032788,-0.029473,-0.113279
29.436024,0.027471,-0.023028,-0.117536
29.436024,0.027471,-0.023028,-0.117536
29.446064,0.018942,-0.027302,-0.111171
29.456103,0.014662,-0.031545,-0.114408
29.466114,0.017876,-0.025143,-0.115437
29.476155,0.009349,-0.025115,-0.115460
29.486163,0.013599,-0.029395,-0.116537
29.516255,0.017864,-0.029414,-0.115457
29.526263,0.020000,-0.026202,-0.118640
29.536304,0.018923,-0.028320,-0.121858
29.546345,0.024264,-0.026221,-0.117560
29.556355,0.019999,-0.025124,-0.120772
29.576405,0.014682,-0.020835,-0.120766
29.586445,0.030664,-0.020872,-0.123927
29.596454,0.017870,-0.026200,-0.117578
29.606494,0.011482,-0.017586,-0.128237
29.616505,0.033873,-0.016611,-0.123898
29.626545,0.011481,-0.019737,-0.125043
29.646595,0.020018,-0.016566,-0.123936
29.656635,0.021063,-0.018659,-0.133557
29.666644,0.021081,-0.018715,-0.121807
29.676685,0.016803,-0.018656,-0.131432
29.686695,0.039186,-0.021963,-0.124977
29.696736,0.009360,-0.015453,-0.126096
29.716786,0.018946,-0.016542,-0.128211
29.726795,0.029585,-0.022979,-0.129281
29.736835,0.033836,-0.028343,-0.127158
29.746875,0.033850,-0.024076,-0.126070
29.756886,0.022122,-0.021872,-0.132501
29.766926,0.035957,-0.031548,-0.128235
29.786976,0.024256,-0.022962,-0.129295
29.786976,0.024256,-0.022962,-0.129295
29.796986,0.033826,-0.032619,-0.126110
29.807025,0.019977,-0.026131,-0.133595
29.817035,0.037049,-0.025170,-0.122861
29.827076,0.013580,-0.028257,-0.131486
29.837086,0.040229,-0.027280,-0.130340
29.867176,0.016801,-0.020802,-0.129306
29.877216,0.029564,-0.029377,-0.131448
29.887225,0.021060,-0.024034,-0.126105
29.897267,0.018929,-0.020798,-0.131436
29.907276,0.033839,-0.026197,-0.129284
29.927326,0.035985,-0.020864,-0.129253
29.927326,0.035985,-0.020864,-0.129253
29.937367,0.014675,-0.018659,-0.129302
29.947375,0.030634,-0.028317,-0.130371
29.957416,0.024257,-0.022967,-0.128227
29.967457,0.016805,-0.018661,-0.130364
29.977467,0.037042,-0.024071,-0.129265
29.997516,0.018925,-0.022939,-0.130378
30.007557,0.034918,-0.021934,-0.128193
30.017566,0.022125,-0.021882,-0.130364
30.027606,0.028519,-0.024054,-0.127152
30.037617,0.024260,-0.021899,-0.128222
30.047657,0.038103,-0.025138,-0.130336
30.067707,0.022122,-0.022950,-0.130369
30.077748,0.033831,-0.028328,-0.130363
30.087756,0.021057,-0.025102,-0.126110
30.097797,0.018911,-0.026128,-0.133598
30.107807,0.038099,-0.028357,-0.127146
30.117848,0.023176,-0.023991,-0.136781
30.127856,0.030630,-0.030458,-0.129313
30.137897,0.016767,-0.031466,-0.132561
30.147907,0.034885,-0.029369,-0.136774
30.157948,0.033826,-0.031541,-0.128241
30.167987,0.010373,-0.029294,-0.135773
30.177998,0.050882,-0.027300,-0.133515
30.188038,0.015714,-0.026118,-0.133607
30.218098,0.025309,-0.025081,-0.133575
30.228138,0.019977,-0.025053,-0.135726
30.238147,0.046613,-0.029422,-0.133537
30.248188,0.027442,-0.022937,-0.136764
30.258237,0.037028,-0.026182,-0.134616
30.278288,0.012518,-0.023956,-0.136810
30.278288,0.012518,-0.023956,-0.136810
30.288297,0.058328,-0.032664,-0.133520
30.298338,0.018914,-0.023982,-0.135724
30.308347,0.028497,-0.027217,-0.135713
30.318388,0.045537,-0.030461,-0.138886
30.328397,0.011452,-0.025031,-0.134682
30.348447,0.030606,-0.035767,-0.135748
30.348447,0.030606,-0.035767,-0.135748
30.358488,0.012503,-0.028218,-0.138967
30.368528,0.029547,-0.031477,-0.138935
30.378538,0.028479,-0.031468,-0.140006
30.388578,0.001854,-0.024979,-0.138981
30.398588,0.047668,-0.030468,-0.138880
30.418638,0.017829,-0.029303,-0.138957
30.418638,0.017829,-0.029303,-0.138957
30.428678,0.044462,-0.033661,-0.138904
30.438688,0.023164,-0.027184,-0.138932
30.448728,0.026355,-0.028253,-0.141065
30.458768,0.041262,-0.034719,-0.138918
30.468778,0.024222,-0.029319,-0.140008
30.498869,0.033794,-0.036825,-0.140017
30.498869,0.033794,-0.036825,-0.140017
30.508878,0.032741,-0.032555,-0.138931
30.518919,0.022087,-0.028224,-0.144281
30.528928,0.035952,-0.027221,-0.139965
30.538969,0.021028,-0.028240,-0.140011
30.559019,0.021034,-0.023954,-0.143196
30.569059,0.041273,-0.028291,-0.143160
30.579069,0.022097,-0.025025,-0.143198
30.589109,0.030615,-0.027178,-0.145321
30.599119,0.039146,-0.027221,-0.142093
30.609159,0.018901,-0.023942,-0.144270
30.639219,0.042355,-0.024038,-0.139933
30.639219,0.042355,-0.024038,-0.139933
30.649259,0.031698,-0.020774,-0.145288
30.659299,0.032754,-0.025054,-0.144237
30.669309,0.042336,-0.029362,-0.143162
30.679350,0.029553,-0.025034,-0.146382
30.689359,0.044461,-0.029349,-0.147429
30.699400,0.033805,-0.030398,-0.144259
30.709409,0.037006,-0.026111,-0.149571
30.719450,0.044449,-0.032543,-0.149581
30.729459,0.026338,-0.030353,-0.148552
30.739500,0.045513,-0.031463,-0.152778
30.749509,0.045509,-0.034682,-0.149588
30.779600,0.029526,-0.031411,-0.152822
30.779600,0.029526,-0.031411,-0.152822
30.789640,0.033775,-0.032458,-0.160292
30.799650,0.057215,-0.038972,-0.153849
30.809690,0.033774,-0.034609,-0.157098
30.819700,0.047626,-0.035722,-0.157065
30.829740,0.056144,-0.037875,-0.159188
30.839750,0.046564,-0.034650,-0.157063
30.849790,0.051890,-0.035735,-0.157053
30.859830,0.062541,-0.036828,-0.159165
30.869840,0.047632,-0.032508,-0.159186
30.879881,0.065726,-0.042183,-0.158113
30.889890,0.054016,-0.034649,-0.162383
30.909940,0.066797,-0.036816,-0.164494
30.919981,0.046564,-0.031421,-0.162388
30.929990,0.038015,-0.036708,-0.167778
30.940031,0.063594,-0.036791,-0.167708
30.950040,0.031639,-0.029206,-0.168828
30.960081,0.038010,-0.035614,-0.173114
30.980131,0.035894,-0.031346,-0.170963
30.990171,0.035884,-0.031316,-0.177372
31.000181,0.051868,-0.033513,-0.175202
31.010221,0.038011,-0.032385,-0.178440
31.020231,0.042260,-0.037739,-0.178453
31.030271,0.061452,-0.033519,-0.180517
31.050321,0.057183,-0.035641,-0.180539
31.060331,0.051864,-0.029191,-0.185864
31.070371,0.055062,-0.030280,-0.183724
31.080412,0.045470,-0.031326,-0.181619
31.090421,0.050788,-0.032386,-0.186950
31.100462,0.062515,-0.031357,-0.186913
31.110471,0.044400,-0.029157,-0.188021
31.120512,0.056121,-0.030263,-0.187994
31.130521,0.055067,-0.025988,-0.187976
31.140562,0.045462,-0.031301,-0.186960
31.150571,0.059326,-0.028142,-0.186907
31.160612,0.047600,-0.027021,-0.190138
31.170652,0.045466,-0.029160,-0.188018
31.190702,0.060386,-0.030282,-0.186914
31.200712,0.039089,-0.022732,-0.188005
31.210752,0.061455,-0.030295,-0.184774
31.220762,0.059335,-0.027095,-0.182629
31.230802,0.048669,-0.027035,-0.187999
31.240812,0.064650,-0.033530,-0.180508
31.250852,0.042285,-0.025971,-0.182670
31.260901,0.065712,-0.032445,-0.184773
31.270941,0.058253,-0.033504,-0.181594
31.280982,0.044415,-0.024895,-0.185864
31.290991,0.068919,-0.030330,-0.182617
31.301032,0.049737,-0.028121,-0.184796
31.311041,0.060376,-0.034559,-0.185866
31.331091,0.059313,-0.032409,-0.187995
31.341132,0.049722,-0.033461,-0.184822
31.351141,0.067848,-0.029233,-0.187956
31.361182,0.058244,-0.032395,-0.190134
31.371222,0.063570,-0.033481,-0.190125
31.381232,0.056110,-0.031305,-0.193340
31.411322,0.060354,-0.037722,-0.194426
31.411322,0.060354,-0.037722,-0.194426
31.421332,0.057173,-0.032377,-0.193342
31.431372,0.057167,-0.032357,-0.197615
31.441382,0.063550,-0.036649,-0.197617
31.451422,0.051832,-0.034475,-0.197639
31.461432,0.065678,-0.036646,-0.199748
31.471472,0.061424,-0.034506,-0.197613
31.481513,0.046496,-0.034438,-0.201927
31.491522,0.075266,-0.038818,-0.198663
31.501563,0.060375,-0.027017,-0.199717
31.511572,0.052890,-0.035531,-0.200846
31.521613,0.078468,-0.038844,-0.195450
31.541663,0.068870,-0.038792,-0.199749
31.541663,0.068870,-0.038792,-0.199749
31.551672,0.069951,-0.035612,-0.195458
31.561713,0.052910,-0.028056,-0.200811
31.571753,0.078478,-0.034567,-0.196498
31.581763,0.057162,-0.032341,-0.200819
31.591803,0.066768,-0.030262,-0.195442
31.611853,0.066747,-0.035581,-0.199740
31.621863,0.060369,-0.031304,-0.196533
31.631903,0.068905,-0.025977,-0.199688
31.641913,0.065691,-0.031301,-0.200791
31.651953,0.067822,-0.033459,-0.197590
31.661963,0.065699,-0.029170,-0.199712
31.682044,0.071014,-0.033454,-0.200786
31.692053,0.071027,-0.028110,-0.201829
31.702094,0.063572,-0.023793,-0.206102
31.712103,0.071014,-0.032376,-0.202917
31.722144,0.057165,-0.026966,-0.208271
31.732153,0.066752,-0.030211,-0.206124
31.742194,0.060349,-0.031243,-0.209351
31.752203,0.049697,-0.026917,-0.213633
31.762244,0.077400,-0.030216,-0.212503
31.772284,0.050756,-0.027978,-0.215771
31.782294,0.050742,-0.033318,-0.215796
31.792334,0.061398,-0.034425,-0.214704
31.802344,0.040083,-0.030049,-0.222220
31.822394,0.044350,-0.031151,-0.217940
31.832434,0.052862,-0.033289,-0.223268
31.842444,0.046472,-0.034362,-0.217950
31.852484,0.036864,-0.038587,-0.221201
31.862494,0.048589,-0.038630,-0.220100
31.872534,0.047547,-0.032239,-0.215800
31.892584,0.057122,-0.039756,-0.213673
31.902625,0.043290,-0.031168,-0.213670
31.912634,0.047517,-0.043992,-0.214788
31.922675,0.056086,-0.031230,-0.209363
31.932684,0.045411,-0.034373,-0.214748
31.942725,0.048596,-0.041885,-0.209434
31.952734,0.034752,-0.035412,-0.213714
31.962775,0.041144,-0.037579,-0.211570
31.972815,0.045399,-0.041874,-0.209442
31.982825,0.041152,-0.036526,-0.208361
31.992865,0.039024,-0.033300,-0.211556
32.002875,0.051811,-0.035487,-0.209395
32.012915,0.036886,-0.036502,-0.210509
32.022925,0.051807,-0.036550,-0.210468
32.032965,0.059272,-0.035512,-0.209374
32.042975,0.050752,-0.031197,-0.212582
32.053015,0.063549,-0.029108,-0.211468
32.063025,0.061409,-0.032305,-0.211489
32.073065,0.048626,-0.031205,-0.209383
32.083106,0.052879,-0.032267,-0.213649
32.093115,0.065687,-0.029135,-0.207190
32.103156,0.049695,-0.025834,-0.216832
32.113165,0.063554,-0.026967,-0.212526
32.123206,0.046517,-0.021577,-0.211480
32.133215,0.043290,-0.029012,-0.217933
32.143256,0.059274,-0.031210,-0.215763
32.153265,0.043312,-0.022619,-0.214698
32.163306,0.045433,-0.024747,-0.217907
32.173346,0.071001,-0.030180,-0.215726
32.183356,0.039058,-0.019402,-0.214695
32.193396,0.060366,-0.022680,-0.213583
32.203406,0.069941,-0.029118,-0.213587
32.213446,0.056097,-0.024802,-0.213605
32.223456,0.057170,-0.021596,-0.214655
32.233496,0.084865,-0.028099,-0.213541
32.243506,0.056105,-0.022671,-0.212527
32.253546,0.081669,-0.027016,-0.214613
32.263571,0.067821,-0.024840,-0.213573
32.273611,0.068875,-0.028037,-0.215721
32.283652,0.071013,-0.026986,-0.213574
32.293661,0.060350,-0.026936,-0.216808
32.313711,0.053948,-0.029046,-0.217904
32.323752,0.064611,-0.026945,-0.217864
32.333761,0.052887,-0.025829,-0.220028
32.343802,0.060333,-0.034422,-0.214707
32.353811,0.037974,-0.023650,-0.218991
32.363852,0.071000,-0.029102,-0.217857
32.383902,0.053951,-0.029056,-0.215767
32.393942,0.067809,-0.028033,-0.215724
32.403952,0.046514,-0.021567,-0.213616
32.413992,0.065675,-0.029095,-0.215735
32.424002,0.075286,-0.024879,-0.210348
32.434042,0.047585,-0.021585,-0.210409
32.444052,0.071017,-0.024845,-0.214632
32.444052,0.071017,-0.024845,-0.214632
32.454092,0.072090,-0.023796,-0.211420
32.474142,0.063562,-0.022685,-0.214643
32.474142,0.063562,-0.022685,-0.214643
32.484183,0.074241,-0.016322,-0.212446
32.494192,0.046509,-0.022630,-0.214689
32.504233,0.050776,-0.022654,-0.212541
32.534292,0.039048,-0.023678,-0.213647
32.534292,0.039048,-0.023678,-0.213647
32.544333,0.046504,-0.020458,-0.222157
32.554343,0.057152,-0.025848,-0.218948
32.564383,0.031573,-0.025765,-0.219018
32.574393,0.048607,-0.027916,-0.227527
32.594473,0.032636,-0.020373,-0.230740
32.594473,0.032636,-0.020373,-0.230740
32.604483,0.064591,-0.033343,-0.220031
32.614523,0.040091,-0.025767,-0.224336
32.624533,0.050733,-0.031136,-0.225400
32.634573,0.056068,-0.030096,-0.223244
32.644583,0.051806,-0.026853,-0.228582
32.664633,0.053947,-0.025812,-0.224298
32.674673,0.051802,-0.030072,-0.225392
32.684714,0.047548,-0.027932,-0.223257
32.694723,0.058216,-0.024768,-0.222145
32.704764,0.050751,-0.026885,-0.221107
32.714773,0.047559,-0.026890,-0.217911
32.744864,0.049713,-0.021582,-0.212539
32.744864,0.049713,-0.021582,-0.212539
32.754874,0.046508,-0.021547,-0.217889
32.764914,0.068902,-0.020582,-0.211413
32.774924,0.052904,-0.022650,-0.214672
32.784964,0.055054,-0.018406,-0.210373
32.815054,0.059320,-0.018430,-0.208225
32.815054,0.059320,-0.018430,-0.208225
32.825064,0.071056,-0.015274,-0.206041
32.835104,0.059327,-0.014143,-0.211409
32.845114,0.066782,-0.016303,-0.211399
32.855154,0.062536,-0.009882,-0.211380
32.875204,0.076369,-0.016319,-0.214577
32.875204,0.076369,-0.016319,-0.214577
32.885245,0.035892,-0.006566,-0.216779
32.895254,0.053991,-0.011949,-0.219959
32.905295,0.064655,-0.009848,-0.219920
32.915304,0.033749,-0.006524,-0.224262
32.925345,0.060385,-0.007658,-0.228467
32.955405,0.076363,-0.011992,-0.226307
32.955405,0.076363,-0.011992,-0.226307
32.965445,0.055050,-0.009776,-0.228492
32.975455,0.057167,-0.014045,-0.230643
32.985495,0.067827,-0.015163,-0.227414
32.995535,0.063563,-0.012993,-0.231688
33.015585,0.050770,-0.017248,-0.226403
33.015585,0.050770,-0.017248,-0.226403
33.025595,0.071015,-0.017299,-0.229551
33.035635,0.043311,-0.018307,-0.223223
33.045645,0.048631,-0.021528,-0.223224
33.055685,0.052906,-0.016192,-0.225323
33.065695,0.044387,-0.016190,-0.220006
33.095785,0.034818,-0.009766,-0.216797
33.095785,0.034818,-0.009766,-0.216797
