time_tick,gyr_X_value,gyr_Y_value,gyr_Z_value
0.006626,-0.079671,-0.557211,-0.227181
0.026676,0.226346,-0.448750,-0.336916
0.036686,0.131092,-0.243730,-0.265708
0.056736,-0.199858,0.255405,-0.123257
0.076786,-0.127639,0.516521,-0.059866
0.086827,-0.091226,0.571860,-0.043480
0.106883,0.051402,0.507361,-0.051937
0.126933,0.120406,0.405668,-0.028207
0.136942,0.122942,0.134140,0.005247
0.156993,-0.022533,-0.080239,0.045491
0.177043,-0.204887,-0.123488,0.056533
0.187083,-0.278329,-0.091242,0.062892
0.207133,-0.315237,0.048743,0.070930
0.227183,-0.214594,0.224706,0.054949
0.237193,-0.098177,0.324810,0.035448
0.257243,0.042842,0.445019,0.038543
0.277293,-0.109761,0.334100,0.111303
0.287333,-0.205924,0.225301,0.148978
0.307383,-0.247850,0.071457,0.189795
0.327433,-0.130573,0.125890,0.116670
0.337473,-0.072900,0.209345,0.044586
0.357524,-0.021424,0.375138,-0.045286
0.377574,0.032041,0.409958,0.007369
0.387583,0.044781,0.371294,0.044609
0.407633,0.041338,0.248205,0.104905
0.427683,-0.037753,0.152216,0.132006
0.437724,-0.090102,0.114001,0.118862
0.457774,-0.111639,0.051214,0.086459
0.477824,0.017357,0.065766,0.082612
0.487834,0.102751,0.122171,0.066023
0.507884,0.217142,0.260727,0.046699
0.517924,0.230043,0.300189,0.049057
0.537974,0.164978,0.247778,0.110586
0.558024,0.036765,0.100546,0.167219
0.568034,0.013138,0.038713,0.160451
0.588084,-0.010558,-0.015362,0.093901
0.608134,-0.040478,-0.026870,0.063854
0.618174,-0.053244,-0.022592,0.071316
0.638224,-0.103108,0.032860,0.122715
0.658274,-0.102803,0.106223,0.191429
0.668284,-0.110155,0.138219,0.205446
0.688334,-0.102670,0.166123,0.171416
0.708384,-0.119930,0.126979,0.104954
0.718424,-0.141393,0.090890,0.072678
0.738474,-0.203525,-0.001626,0.031476
0.758524,-0.264508,-0.070713,0.003207
0.768565,-0.256063,-0.095257,-0.006499
0.788615,-0.137800,-0.123519,0.017194
0.808665,0.010528,-0.093339,0.082908
0.818675,0.079900,-0.068015,0.100311
0.838725,0.165220,-0.029689,0.067614
0.858775,0.187518,-0.027343,0.007866
0.868815,0.175725,-0.036780,-0.021053
0.888865,0.146800,-0.067454,-0.064006
0.908915,0.132843,-0.109098,-0.055696
0.918925,0.138151,-0.123054,-0.043997
0.938975,0.142466,-0.117845,-0.019392
0.959025,0.140427,-0.086893,-0.013910
0.969065,0.146840,-0.077277,-0.019188
0.989115,0.120119,-0.099572,-0.028981
1.009165,0.067708,-0.163442,-0.036905
1.019175,0.045247,-0.197589,-0.027515
1.039225,-0.000538,-0.193270,-0.006257
1.059275,0.008105,-0.160272,0.011015
1.069316,0.027367,-0.141193,0.028249
1.089366,0.072278,-0.129956,0.105338
1.109431,0.140581,-0.133700,0.172807
1.119440,0.181102,-0.129590,0.179347
1.139490,0.242920,-0.109328,0.143295
1.159540,0.265271,-0.094222,0.095358
1.169581,0.246083,-0.080145,0.067598
1.189631,0.208701,-0.070079,-0.002959
1.209681,0.143630,-0.075071,-0.032005
1.219721,0.106316,-0.084611,-0.021471
1.239771,0.041317,-0.114606,0.042301
1.259821,-0.019342,-0.125472,0.123266
1.269831,-0.042761,-0.124409,0.140297
1.289881,-0.089694,-0.125213,0.116663
1.309931,-0.142011,-0.134442,0.071610
1.319971,-0.166574,-0.140669,0.050148
1.340021,-0.171816,-0.113999,0.059874
1.360071,-0.109681,-0.024722,0.108538
1.370081,-0.060471,0.025165,0.139888
1.390131,0.012264,0.099507,0.177828
1.410181,0.019745,0.119885,0.154444
1.420222,0.013296,0.114692,0.127697
1.440272,-0.016673,0.105497,0.060273
1.460322,-0.102003,0.108137,0.011980
1.470331,-0.149970,0.111543,0.002250
1.490382,-0.190460,0.103024,0.024530
1.510432,-0.167998,0.094079,0.093983
1.520472,-0.147680,0.093801,0.138903
1.540522,-0.088863,0.124221,0.215053
1.560572,-0.056606,0.194317,0.275294
1.570582,-0.038356,0.234774,0.289422
1.590662,-0.008297,0.326630,0.266439
1.610712,0.017425,0.411197,0.207090
1.620722,0.019525,0.413442,0.182538
1.640772,0.059789,0.336501,0.165194
1.660822,0.201274,0.243166,0.157666
1.670862,0.280069,0.224831,0.141774
1.690913,0.372672,0.211988,0.084285
1.710963,0.249899,0.169952,0.023927
1.720972,0.160220,0.126559,0.002110
1.741022,0.030917,0.000947,0.004363
1.751063,-0.008668,-0.066310,0.026368
1.771113,-0.033367,-0.175519,0.101626
1.791163,0.022094,-0.194137,0.161511
1.811213,-0.003364,-0.151347,0.163780
1.821223,-0.021481,-0.146986,0.157341
1.841273,-0.056803,-0.184097,0.125021
1.861323,-0.049557,-0.225452,0.057548
1.871363,-0.024060,-0.233891,0.018055
1.891413,0.013021,-0.262396,-0.077048
1.911463,-0.011834,-0.359260,-0.127781
1.921473,-0.017352,-0.425429,-0.133451
1.941523,-0.049584,-0.526844,-0.120133
1.951563,-0.063502,-0.557840,-0.105363
1.971613,-0.064689,-0.628547,-0.057631
1.991663,0.003353,-0.731644,0.016844
2.001673,0.058751,-0.759757,0.052115
2.021754,0.157940,-0.765687,0.108977
2.041804,0.214497,-0.762859,0.149739
2.051813,0.260316,-0.775904,0.166895
2.071863,0.280502,-0.811312,0.188148
2.091914,0.184570,-0.823897,0.204914
2.101976,0.129160,-0.821596,0.207977
2.122026,0.099347,-0.812976,0.212208
2.142076,0.099336,-0.818326,0.214319
2.152086,0.119580,-0.826991,0.226084
2.172136,0.149607,-0.774891,0.254187
2.192186,0.097780,-0.643482,0.279235
2.202226,0.091552,-0.575048,0.265654
2.222276,0.064033,-0.458149,0.180674
2.242326,-0.005160,-0.377400,0.090067
2.252336,-0.034940,-0.332258,0.049606
2.272386,-0.035907,-0.267936,-0.001367
2.292436,-0.033817,-0.273196,-0.019545
2.302476,-0.035003,-0.322363,-0.010167
2.322526,0.024383,-0.457338,0.036360
2.342576,0.173429,-0.557479,0.107868
2.352586,0.221458,-0.550311,0.140081
2.372636,0.193133,-0.410532,0.185529
2.392686,0.063425,-0.262467,0.129256
2.402727,0.009041,-0.237425,0.065131
2.422777,-0.002943,-0.278575,-0.032304
2.442827,0.100136,-0.392132,-0.028284
2.452867,0.140591,-0.431979,0.014368
2.472917,0.149394,-0.372557,0.089449
2.492967,0.181850,-0.211530,0.117005
2.502977,0.218286,-0.136873,0.113186
2.523027,0.205753,-0.033156,0.095483
2.543077,0.139699,-0.016862,0.082559
2.553117,0.086370,-0.021953,0.066364
2.573167,-0.005439,-0.058881,0.033889
2.593217,-0.068505,-0.142116,0.063231
2.603227,-0.052582,-0.180745,0.090866
2.623277,0.042373,-0.168441,0.133915
2.643327,0.133314,-0.051344,0.151812
2.653367,0.162286,0.022270,0.147967
2.673417,0.151857,0.117451,0.127025
2.693468,0.072939,0.123249,0.084105
2.703477,0.005729,0.112900,0.060370
2.723527,-0.069093,0.057812,0.017174
2.743577,-0.056510,0.003488,-0.021504
2.753618,-0.055494,-0.008207,-0.033307
2.773668,-0.017198,-0.038263,-0.026934
2.793718,-0.007596,-0.054486,0.009335
2.803728,-0.011801,-0.037420,0.016882
2.823778,-0.001009,0.004133,0.029927
2.843828,-0.015937,0.010665,0.013893
2.853868,-0.005388,-0.014878,-0.011836
2.873918,0.000784,-0.079901,-0.042036
2.893968,-0.024900,-0.116112,-0.045483
2.904008,-0.041938,-0.115024,-0.038048
2.924058,-0.064240,-0.096893,-0.017727
2.934068,-0.051421,-0.088411,-0.013379
2.954118,-0.037564,-0.087383,-0.014404
2.974168,-0.017447,-0.123652,-0.036952
2.994218,-0.002580,-0.142918,-0.038071
3.004259,-0.004649,-0.119412,-0.039033
3.024309,0.001942,-0.041418,-0.050397
3.044359,-0.003188,0.038759,-0.063918
3.054368,-0.001003,0.061204,-0.069147
3.074418,-0.022288,0.074104,-0.072350
3.084459,-0.051077,0.069926,-0.072449
3.104520,-0.067129,0.044332,-0.069410
3.124569,-0.082038,0.048652,-0.069430
3.134580,-0.064954,0.058193,-0.066133
3.154630,-0.048880,0.086950,-0.060612
3.174680,-0.042520,0.076265,-0.063850
3.194729,-0.075691,0.025081,-0.057774
3.204770,-0.100274,-0.005854,-0.048374
3.224819,-0.148335,-0.054935,-0.025239
3.234830,-0.139859,-0.077424,-0.017844
3.254880,-0.091963,-0.106460,-0.008235
3.274960,-0.034487,-0.127944,-0.020997
3.284970,-0.021744,-0.135380,-0.038088
3.305020,0.020788,-0.155668,-0.067976
3.325070,0.042133,-0.139673,-0.077456
3.345120,0.007098,-0.088283,-0.080514
3.355161,-0.014159,-0.062548,-0.087929
3.375210,-0.062073,-0.034535,-0.107156
3.385220,-0.091940,-0.037591,-0.117935
3.405269,-0.139988,-0.059781,-0.135265
3.425321,-0.142255,-0.105664,-0.141897
3.435361,-0.132694,-0.120677,-0.135533
3.455411,-0.108105,-0.105917,-0.111894
3.475460,-0.101534,-0.063408,-0.072151
3.495511,-0.095924,0.016477,-0.031165
3.505521,-0.072332,0.057954,-0.010608
3.525571,-0.033752,0.121794,0.013301
3.535611,-0.017753,0.117394,0.029348
3.555661,-0.002980,0.049950,0.053639
3.575711,-0.036177,-0.011923,0.061800
3.585720,-0.057545,-0.026769,0.054193
3.605771,-0.067178,-0.027685,0.028525
3.625821,-0.062897,-0.002979,-0.004461
3.645871,-0.044771,0.012019,-0.026772
3.655910,-0.039435,0.015211,-0.027811
3.675961,-0.036141,0.049364,-0.025503
3.685970,-0.029697,0.069654,-0.029663
3.706052,0.012950,0.080240,-0.039109
3.726101,0.017081,0.041867,-0.057438
3.736112,0.006316,0.006690,-0.064044
3.756162,-0.017373,-0.080798,-0.065591
3.776212,-0.014254,-0.131189,-0.026297
3.796261,0.050876,-0.118843,0.028420
3.806302,0.071278,-0.081688,0.061767
3.826351,0.119557,0.014098,0.098673
3.836362,0.146306,0.051384,0.099991
3.856412,0.123994,0.082477,0.089395
3.876462,0.045025,0.064735,0.055978
3.886502,-0.004057,0.058608,0.030176
3.906552,-0.065962,0.048317,-0.009568
3.926602,-0.080840,0.073004,-0.025515
3.936611,-0.079712,0.095427,-0.025406
3.956662,-0.063640,0.124189,-0.020953
3.976711,-0.055151,0.107044,-0.014601
3.986752,-0.058403,0.082451,-0.006181
4.006801,-0.057444,0.037544,0.004292
4.026853,-0.064938,0.030133,-0.004310
4.036862,-0.048939,0.038660,-0.011703
4.056912,0.017192,0.061981,-0.019955
4.076961,0.053451,0.071489,-0.023015
4.097012,0.035366,0.090832,-0.035792
4.107053,0.019409,0.110177,-0.050699
4.127103,-0.027460,0.135023,-0.078485
4.137143,-0.050951,0.125544,-0.090345
4.157193,-0.084218,0.061737,-0.124922
4.177243,-0.079164,-0.033280,-0.134971
4.187252,-0.067542,-0.073930,-0.128722
4.207303,0.004833,-0.126635,-0.098861
4.227353,0.054974,-0.116179,-0.085855
4.237393,0.057154,-0.103412,-0.077243
4.257442,0.044466,-0.070300,-0.069644
4.277493,0.031745,-0.041389,-0.077019
4.287502,0.043482,-0.033931,-0.081225
4.307553,0.078696,-0.024485,-0.070400
4.327602,0.071332,0.006474,-0.062797
4.337644,0.038330,0.020465,-0.062822
4.357694,-0.005349,0.022702,-0.054386
4.377744,-0.023498,-0.006083,-0.036478
4.387753,-0.067222,-0.020007,-0.014167
4.407803,-0.069285,-0.023446,0.037085
4.417844,-0.055319,-0.001222,0.070343
4.437894,0.008905,0.076332,0.112548
4.457944,0.050634,0.129543,0.123597
4.477994,0.034581,0.122261,0.093609
4.488004,0.001448,0.105428,0.062459
4.508053,-0.068049,0.063265,-0.007366
4.518094,-0.091551,0.058128,-0.034161
4.538143,-0.119260,0.075446,-0.064066
4.568234,-0.037310,0.043233,-0.083219
4.568234,-0.037310,0.043233,-0.083219
4.588284,0.026423,-0.031699,-0.089807
4.608333,0.076246,-0.136575,-0.078415
4.618344,0.066553,-0.175004,-0.075419
4.638394,0.023826,-0.211190,-0.072503
4.658444,-0.015535,-0.184364,-0.072485
4.668485,-0.013324,-0.152308,-0.077669
4.688535,0.016719,-0.071171,-0.092157
4.718593,0.058481,0.001323,-0.093835
4.718593,0.058481,0.001323,-0.093835
4.738645,0.033960,0.012198,-0.118420
4.758695,-0.056694,-0.003471,-0.130495
4.778745,-0.120708,-0.014904,-0.153159
4.788784,-0.124950,-0.006337,-0.155266
4.808835,-0.121573,0.060948,-0.158143
4.818844,-0.105482,0.099346,-0.158985
4.838895,-0.057435,0.129077,-0.155507
4.868985,-0.016159,0.025373,-0.160157
4.868985,-0.016159,0.025373,-0.160157
4.889034,-0.036684,-0.070639,-0.168145
4.909085,-0.094395,-0.124891,-0.173902
4.929134,-0.093407,-0.159119,-0.163379
4.939145,-0.069926,-0.151760,-0.154734
4.959226,-0.010108,-0.122214,-0.120246
4.969235,0.015555,-0.099941,-0.105115
4.989285,0.006143,-0.039079,-0.096307
5.019376,-0.035245,0.020815,-0.086524
5.019376,-0.035245,0.020815,-0.086524
5.039426,-0.033091,0.026122,-0.081152
5.059476,-0.070399,0.015488,-0.065282
5.069485,-0.092811,0.001652,-0.060069
5.089536,-0.079048,-0.036878,-0.051667
5.109604,-0.031177,-0.070145,-0.050624
5.119644,0.001810,-0.080856,-0.066607
5.139694,0.054025,-0.062683,-0.105900
5.159744,0.046641,-0.011196,-0.148406
5.169754,0.026417,0.009251,-0.167593
5.189804,-0.067308,0.040592,-0.181590
5.209854,-0.120625,0.031153,-0.181782
5.219894,-0.141961,0.022669,-0.179745
5.239944,-0.154816,0.011070,-0.202268
5.259994,-0.159128,0.008006,-0.229000
5.270004,-0.195363,0.012426,-0.235488
5.290054,-0.209299,-0.024977,-0.220749
5.310104,-0.153026,-0.119275,-0.192197
5.320144,-0.102023,-0.188968,-0.168885
5.340194,-0.034000,-0.289853,-0.110423
5.360245,0.040604,-0.313787,-0.068670
5.370285,0.086505,-0.298003,-0.050308
5.390335,0.114465,-0.211631,-0.041277
5.410385,0.089138,-0.117550,-0.045175
5.420395,0.047674,-0.077882,-0.049374
5.440445,0.022195,-0.026412,-0.075907
5.460495,-0.015086,0.001648,-0.112196
5.470535,-0.021529,-0.004643,-0.132540
5.490585,-0.068506,-0.013925,-0.170101
5.510635,-0.106888,-0.007297,-0.190472
5.530685,-0.125978,0.014013,-0.166923
5.540695,-0.126966,0.027773,-0.140156
5.560745,-0.112859,0.077561,-0.064038
5.570785,-0.105254,0.110471,-0.027542
5.590835,-0.091162,0.155998,0.046419
5.610885,-0.073044,0.126857,0.098674
5.620895,-0.045425,0.081813,0.119901
5.640945,-0.015839,-0.021959,0.137652
5.660995,0.024270,-0.151194,0.112582
5.681045,0.044170,-0.249256,0.058763
5.691086,0.049385,-0.270455,0.021290
5.711136,0.057891,-0.258568,-0.054234
5.721145,0.042143,-0.126777,-0.094486
5.741195,0.001019,0.068010,-0.154566
5.761246,0.006704,0.229523,-0.211470
5.771286,0.011033,0.254076,-0.212410
5.791336,-0.007126,0.223023,-0.182697
5.811386,-0.015750,0.140416,-0.097655
5.821426,-0.031770,0.103946,-0.053007
5.841476,-0.013712,0.048066,0.007667
5.861526,0.012881,0.007245,-0.002961
5.871536,0.133134,-0.025997,-0.013642
5.891586,0.173306,-0.128503,-0.044994
5.911636,0.170896,-0.227793,-0.049743
5.921676,0.131416,-0.249064,-0.041407
5.941726,0.135716,-0.243809,-0.026415
5.951736,0.143248,-0.218208,-0.025205
5.971786,-1.291176,0.567782,0.058937
5.991836,-1.472742,1.891825,0.231340
6.001877,-0.569358,1.795397,0.130832
6.021927,0.015756,1.431724,0.076250
6.041977,0.445843,0.911744,-0.016887
6.062027,0.335118,0.313086,-0.265714
6.072037,0.155962,-0.032729,-0.412054
6.092087,-0.243973,-0.792987,-0.617580
6.102155,-0.370880,-1.181061,-0.671041
6.122205,-0.550201,-1.665312,-0.675964
6.152265,-0.201459,-1.340910,-0.408548
6.172314,0.085623,-0.556973,-0.164767
6.192395,0.228792,0.278155,-0.033303
6.202404,0.265853,0.552272,0.015098
6.222455,0.354770,0.677651,0.089643
6.242505,0.249671,0.453837,0.064793
6.252545,0.140518,0.322015,0.011526
6.272595,-0.070176,0.134352,-0.133085
6.292646,-0.163411,0.004852,-0.236504
6.302655,-0.152936,-0.045234,-0.266622
6.322705,-0.134036,-0.141344,-0.280911
6.342754,-0.091602,-0.224877,-0.260893
6.352796,-0.047960,-0.251773,-0.249149
6.372846,0.062874,-0.285496,-0.194523
6.392896,0.116238,-0.285907,-0.144172
6.402906,0.120527,-0.273076,-0.150509
6.422956,0.134352,-0.246094,-0.219777
6.443006,0.153315,-0.255150,-0.350089
6.453045,0.177640,-0.288027,-0.415338
6.473096,0.200600,-0.428751,-0.483238
6.493146,0.098896,-0.602570,-0.468318
6.503156,0.035874,-0.670865,-0.436769
6.523205,-0.064235,-0.703093,-0.328240
6.543256,-0.148803,-0.507891,-0.220729
6.553295,-0.132365,-0.355331,-0.198598
6.573346,-0.018574,-0.067438,-0.179830
6.593395,0.126831,0.085761,-0.155203
6.603406,0.179120,0.100466,-0.138966
6.623487,0.186510,0.050037,-0.094319
6.643537,0.124445,-0.048077,-0.081068
6.653546,0.078479,-0.090585,-0.094214
6.673597,0.001631,-0.108298,-0.135103
6.693647,0.011234,-0.079278,-0.180872
6.703687,0.035747,-0.066431,-0.204244
6.723737,0.127267,-0.110453,-0.217018
6.743787,0.215515,-0.199474,-0.196899
6.753797,0.218633,-0.234782,-0.185307
6.773846,0.189785,-0.262470,-0.182313
6.793897,0.085425,-0.203162,-0.231459
6.803936,0.035401,-0.152589,-0.277291
6.823987,-0.033802,-0.059955,-0.396684
6.844037,-0.077526,-0.025260,-0.476757
6.854047,-0.089273,-0.020839,-0.500269
6.874096,-0.091383,-0.005820,-0.513023
6.894147,-0.089122,0.037927,-0.506400
6.904187,-0.084800,0.057116,-0.502025
6.924237,-0.085826,0.048379,-0.460408
6.934247,-0.083712,0.020418,-0.421011
6.954297,-0.070979,-0.055927,-0.319857
6.984387,0.057926,-0.156346,-0.175767
6.984387,0.057926,-0.156346,-0.175767
7.004438,0.181497,-0.192100,-0.152093
7.024488,0.219791,-0.195221,-0.195799
7.044538,0.160034,-0.179717,-0.271734
7.054577,0.117375,-0.169795,-0.308124
7.074628,-0.009421,-0.135023,-0.347834
7.084637,-0.088211,-0.105932,-0.347914
7.104717,-0.161490,-0.021418,-0.328489
7.134807,-0.119383,0.151239,-0.282691
7.134807,-0.119383,0.151239,-0.282691
7.154857,-0.055225,0.207459,-0.245929
7.174907,-0.015815,0.183710,-0.219227
7.194957,-0.013864,0.087326,-0.164130
7.204967,-0.016112,0.033841,-0.144093
7.225017,0.048623,-0.072131,-0.136938
7.235057,0.083696,-0.103174,-0.145534
7.255107,0.076205,-0.087971,-0.193552
7.275158,0.071950,-0.029814,-0.293701
7.285167,0.050636,-0.000668,-0.344896
7.305217,-0.061316,0.026763,-0.423055
7.325267,-0.140343,-0.011259,-0.458705
7.335308,-0.150039,-0.051834,-0.453582
7.355358,-0.138426,-0.124770,-0.395144
7.375408,-0.086124,-0.143499,-0.309631
7.385418,-0.041253,-0.126750,-0.268835
7.405468,0.034747,-0.039704,-0.209462
7.435558,0.090466,0.080898,-0.231170
7.435558,0.090466,0.080898,-0.231170
7.455608,0.085950,0.017079,-0.282758
7.475658,0.001337,-0.118137,-0.312473
7.495708,-0.020335,-0.249438,-0.309950
7.505748,-0.001211,-0.275161,-0.303609
7.525798,0.045841,-0.219797,-0.300013
7.535808,0.052409,-0.151424,-0.309285
7.555858,0.072951,-0.019918,-0.354539
7.585949,0.010043,0.014840,-0.434665
7.585949,0.010043,0.014840,-0.434665
7.605999,-0.045648,-0.083229,-0.435283
7.626049,-0.077784,-0.151554,-0.418603
7.636058,-0.089503,-0.156916,-0.405843
7.656108,-0.065879,-0.109077,-0.375641
7.676158,-0.042106,-0.011081,-0.337724
7.686199,-0.039833,0.028319,-0.315099
7.706249,-0.045003,0.072000,-0.289270
7.736309,-0.057608,0.131780,-0.275135
7.736309,-0.057608,0.131780,-0.275135
7.756359,-0.072467,0.163947,-0.292115
7.776409,-0.054461,0.140545,-0.324223
7.786449,-0.047083,0.120317,-0.342457
7.806499,-0.046187,0.073456,-0.370450
7.826549,0.004720,0.001911,-0.406967
7.836559,0.018459,-0.032237,-0.422046
7.856639,-0.016817,-0.053335,-0.453221
7.886699,-0.134001,0.013662,-0.538685
7.886699,-0.134001,0.013662,-0.538685
7.906749,-0.196803,0.054549,-0.560030
7.926799,-0.211672,0.069513,-0.552523
7.936840,-0.215923,0.063023,-0.532269
7.956890,-0.161581,0.020879,-0.465021
7.976940,-0.079574,-0.054603,-0.367944
7.986949,-0.044400,-0.082732,-0.315637
8.007000,0.005720,-0.112067,-0.244067
8.027050,0.063271,-0.128405,-0.216212
8.037090,0.079243,-0.135953,-0.211930
8.057140,0.058999,-0.133751,-0.211976
8.077190,0.034513,-0.113290,-0.231175
8.087200,0.037737,-0.099381,-0.238577
8.107248,-0.001586,-0.034975,-0.281110
8.127298,-0.069646,0.064948,-0.362010
8.137338,-0.106879,0.114401,-0.405675
8.157388,-0.173945,0.182233,-0.476042
8.177438,-0.205918,0.197414,-0.502764
8.187448,-0.197397,0.197402,-0.505945
8.207498,-0.168611,0.192971,-0.492000
8.217538,-0.148340,0.191761,-0.475926
8.237588,-0.081241,0.166915,-0.461971
8.257638,-0.005740,0.091803,-0.438617
8.277688,0.008914,-0.019426,-0.414534
8.287729,0.004494,-0.079242,-0.409488
8.307779,-0.019193,-0.168892,-0.405705
8.337839,-0.050049,-0.174344,-0.360951
8.337839,-0.050049,-0.174344,-0.360951
8.357889,-0.043443,-0.114707,-0.329672
8.367929,-0.029473,-0.083878,-0.309192
8.387979,-0.060147,-0.016655,-0.275844
8.408029,-0.107958,0.036887,-0.273587
8.418039,-0.110082,0.044410,-0.282103
8.438089,-0.113376,0.016720,-0.296129
8.458139,-0.102850,-0.013060,-0.329356
8.478189,-0.065647,-0.026867,-0.370979
8.488229,-0.050779,-0.033212,-0.394468
8.508279,-0.001896,-0.056612,-0.447854
8.518289,0.033149,-0.083258,-0.483135
8.538339,0.086191,-0.146201,-0.533492
8.558389,0.019990,-0.163913,-0.581828
8.568429,-0.013068,-0.155131,-0.609652
8.588479,-0.051429,-0.122716,-0.663015
8.608530,-0.116380,-0.090386,-0.680133
8.628580,-0.185509,-0.049696,-0.655563
8.638589,-0.220575,-0.029448,-0.622449
8.658639,-0.223544,-0.003230,-0.518717
8.668680,-0.190398,-0.000442,-0.453451
8.688730,-0.125145,0.013670,-0.320745
8.708780,-0.043953,0.031112,-0.225367
8.718820,-0.000206,0.030813,-0.192133
8.738870,0.051973,-0.003682,-0.160106
8.758920,0.035783,-0.062235,-0.188201
8.788980,-0.074296,-0.120169,-0.282782
8.788980,-0.074296,-0.120169,-0.282782
8.809030,-0.097874,-0.129375,-0.352325
8.819070,-0.108548,-0.116364,-0.386476
8.839120,-0.111708,-0.065842,-0.453543
8.859170,-0.107364,0.002831,-0.524776
8.869180,-0.123313,0.030770,-0.550325
8.889230,-0.178746,0.044990,-0.583526
8.909280,-0.190598,0.001268,-0.589106
8.939371,-0.140755,-0.141374,-0.495641
8.939371,-0.140755,-0.141374,-0.495641
8.959421,-0.087545,-0.237164,-0.375239
8.969430,-0.069414,-0.263117,-0.319764
8.989480,-0.022382,-0.248622,-0.255473
9.009531,0.019490,-0.154931,-0.222867
9.019571,0.010080,-0.085459,-0.227906
9.039621,-0.041873,0.034501,-0.265938
9.059671,-0.086587,0.074347,-0.305397
9.089731,-0.164467,0.061916,-0.333444
9.089731,-0.164467,0.061916,-0.333444
9.109823,-0.128284,0.047966,-0.344092
9.119833,-0.095246,0.047863,-0.345070
9.139883,-0.028133,0.047746,-0.366249
9.159933,0.014348,0.017924,-0.412206
9.169973,0.012098,-0.012933,-0.434791
9.190023,-0.078713,-0.073349,-0.469510
9.210074,-0.158777,-0.109303,-0.490198
9.230124,-0.205574,-0.085762,-0.467783
9.240133,-0.216108,-0.052728,-0.445224
9.260183,-0.138100,-0.005157,-0.395645
9.270224,-0.087922,0.000876,-0.350613
9.290274,-0.051562,-0.013636,-0.242691
9.310324,-0.039724,-0.016190,-0.162555
9.320334,-0.017275,0.000759,-0.148526
9.340384,-0.037353,0.069222,-0.158940
9.360434,-0.077811,0.115538,-0.214379
9.390524,-0.113237,0.081990,-0.322526
9.390524,-0.113237,0.081990,-0.322526
9.410574,-0.193347,0.034329,-0.351814
9.420584,-0.221117,0.015217,-0.356254
9.440634,-0.155150,-0.033115,-0.343482
9.460684,-0.059245,-0.064614,-0.297433
9.470724,-0.033639,-0.068013,-0.273877
9.490774,0.033504,-0.078996,-0.255584
9.510824,0.046275,-0.082211,-0.261973
9.530874,-0.016599,-0.063720,-0.289833
9.540915,-0.053895,-0.045308,-0.318691
9.560965,-0.064586,-0.009622,-0.405077
9.570974,-0.051818,0.007641,-0.450893
9.591024,-0.077386,0.054009,-0.527656
9.611074,-0.127548,0.052239,-0.570531
9.621115,-0.154262,0.027768,-0.571789
9.641165,-0.200229,-0.048129,-0.525274
9.661215,-0.137378,-0.106406,-0.439919
9.671225,-0.075526,-0.119644,-0.392809
9.691275,0.023802,-0.100161,-0.289894
9.711325,0.053887,-0.053629,-0.213747
9.721365,0.056121,-0.024878,-0.197582
9.741415,0.013611,0.021197,-0.200686
9.761465,-0.052481,0.044071,-0.249899
9.771475,-0.061064,0.046432,-0.291571
9.791525,-0.054848,0.023281,-0.368575
9.811575,-0.065792,-0.046874,-0.430894
9.821615,-0.070197,-0.089502,-0.447131
9.841665,-0.104417,-0.134269,-0.442096
9.851675,-0.084148,-0.126854,-0.443073
9.871725,-0.042369,-0.051182,-0.439395
9.891775,-0.032568,0.043995,-0.473100
9.911825,-0.074026,0.098726,-0.500730
9.921866,-0.142205,0.111772,-0.502993
9.941916,-0.205103,0.094794,-0.482951
9.951956,-0.206176,0.075428,-0.452067
9.972006,-0.248669,0.071897,-0.353926
9.992056,-0.160139,0.058465,-0.284311
10.002066,-0.088744,0.034577,-0.250044
10.022116,-0.043984,-0.004337,-0.181738
10.042166,-0.036530,-0.034502,-0.131654
10.062216,-0.016256,-0.047570,-0.092136
10.072256,-0.015122,-0.032708,-0.073903
10.092306,-0.038427,0.015389,-0.066263
10.102334,-0.052258,0.034748,-0.085437
10.122384,-0.056649,0.034089,-0.168773
10.152474,-0.237890,0.066092,-0.263125
10.152474,-0.237890,0.066092,-0.263125
10.172524,-0.267754,0.084572,-0.311190
10.192574,-0.234840,0.035310,-0.304923
10.212624,-0.271289,-0.055463,-0.280884
10.222634,-0.249052,-0.111093,-0.275745
10.242684,-0.164988,-0.182037,-0.236324
10.252725,-0.140413,-0.172617,-0.212711
10.272775,-0.097499,-0.086395,-0.182274
10.302834,-0.031060,0.059828,-0.209173
10.302834,-0.031060,0.059828,-0.209173
10.322884,-0.036445,0.067564,-0.260425
10.342935,-0.148521,0.025367,-0.294049
10.363015,-0.230758,-0.052462,-0.265803
10.373025,-0.262768,-0.086714,-0.227598
10.393075,-0.246721,-0.110655,-0.144346
10.403115,-0.230622,-0.091671,-0.104688
10.423165,-0.217632,-0.041717,-0.062755
10.453225,-0.210043,-0.001216,-0.050792
10.453225,-0.210043,-0.001216,-0.050792
10.473275,-0.200335,0.041475,-0.051632
10.493325,-0.138370,0.102202,-0.062924
10.513375,-0.121266,0.147227,-0.110733
10.523415,-0.130902,0.150629,-0.145994
10.543466,-0.130090,0.104031,-0.229533
10.553475,-0.124958,0.068013,-0.294851
10.573525,-0.180777,-0.000564,-0.434197
10.593575,-0.270554,-0.055497,-0.499866
10.603616,-0.277025,-0.084320,-0.497884
10.623666,-0.214280,-0.170268,-0.432956
10.643716,-0.113131,-0.267221,-0.325245
10.653726,-0.079027,-0.300721,-0.265490
10.673776,-0.041669,-0.343028,-0.152356
10.693826,-0.010664,-0.371441,-0.037038
10.703866,0.018167,-0.381404,0.017474
10.723916,0.075787,-0.401193,0.097655
10.743966,0.087632,-0.367143,0.116009
10.753976,0.090904,-0.330763,0.099099
10.774026,0.086773,-0.248225,0.037521
10.784066,0.079379,-0.206400,0.005652
10.804116,0.079577,-0.102538,-0.051539
10.834207,0.075704,0.029813,-0.032764
10.834207,0.075704,0.029813,-0.032764
10.854257,0.061927,0.042537,-0.003900
10.874307,0.057618,0.026537,-0.005056
10.894357,0.027790,0.045978,-0.030684
10.904366,0.042702,0.052423,-0.048772
10.924416,0.114081,0.061979,-0.085917
10.934457,0.158806,0.056570,-0.101842
10.954507,0.182171,0.025514,-0.099788
10.984567,0.023159,-0.100421,-0.008957
10.984567,0.023159,-0.100421,-0.008957
11.004617,0.004927,-0.175405,0.051526
11.024667,0.032747,-0.147836,0.074166
11.034707,0.061620,-0.109453,0.068018
11.054757,0.145994,-0.037037,0.053639
11.074807,0.164290,0.033438,0.043341
11.084817,0.160110,0.065505,0.040276
11.104888,0.100555,0.102990,0.058449
11.134978,0.022537,0.023133,0.061060
11.134978,0.022537,0.023133,0.061060
11.155028,0.078703,-0.083752,0.041482
11.175078,0.052995,-0.119887,0.022012
11.185088,0.028507,-0.098343,-0.000386
11.205169,0.002011,-0.021168,-0.041755
11.225219,-0.044757,0.039983,-0.068300
11.235228,-0.067150,0.045476,-0.085428
11.255279,-0.096042,0.010388,-0.098492
11.275329,-0.095087,-0.039894,-0.080568
11.285369,-0.070604,-0.058189,-0.067768
11.305419,-0.020537,-0.064734,-0.073002
11.325469,-0.002491,-0.072106,-0.107169
11.335479,-0.012121,-0.077339,-0.123244
11.355529,-0.042089,-0.118856,-0.131001
11.375579,-0.084744,-0.148806,-0.091736
11.385619,-0.080396,-0.135084,-0.060681
11.405669,-0.058667,-0.010428,-0.013030
11.435729,0.052774,0.222147,-0.038327
11.435729,0.052774,0.222147,-0.038327
11.455779,0.060175,0.230929,-0.093812
11.475829,0.025701,0.128797,-0.153142
11.485869,0.027587,0.055240,-0.182327
11.505919,0.012232,-0.101687,-0.185248
11.525969,-0.003999,-0.185961,-0.194237
11.535979,0.016170,-0.212700,-0.199649
11.556029,0.020491,-0.209667,-0.166508
11.586120,0.063415,-0.149328,-0.082784
11.586120,0.063415,-0.149328,-0.082784
11.606170,0.108278,-0.153021,-0.010039
11.626220,0.103007,-0.159649,0.040122
11.646270,0.048752,-0.128553,0.050801
11.656310,0.013677,-0.093198,0.050871
11.676360,-0.015942,0.004217,0.022408
11.686370,-0.008380,0.048039,0.009818
11.706420,-0.016784,0.112309,-0.025152
11.726470,-0.025403,0.095397,-0.056234
11.736510,-0.039338,0.068764,-0.060672
11.756560,-0.071474,0.012288,-0.065300
11.776610,-0.065144,-0.020920,-0.048349
11.796660,-0.044853,-0.018961,-0.024783
11.806670,-0.019248,-0.014818,-0.015078
11.826720,0.009596,-0.001119,0.004294
11.836760,-0.001056,-0.001105,0.008538
11.856811,-0.008604,-0.023426,-0.008680
11.876861,-0.005561,-0.080037,-0.008940
11.886870,-0.030104,-0.105719,0.018645
11.906920,-0.024789,-0.132622,0.058056
11.926970,-0.070422,-0.080311,0.093428
11.947020,-0.095716,0.019049,0.102374
11.957061,-0.076442,0.049941,0.105778
11.977111,-0.051821,0.076453,0.128404
11.987121,-0.033696,0.076374,0.132727
12.007171,-0.028343,0.082744,0.137044
12.027251,-0.064585,0.087184,0.126283
12.037261,-0.051881,0.065870,0.108058
12.057311,-0.001008,-0.021724,0.077874
12.077361,-0.006649,-0.110128,0.031507
12.097411,-0.028220,-0.181422,-0.008414
12.107460,-0.067690,-0.191953,-0.012845
12.127510,-0.178398,-0.138161,-0.020375
12.137520,-0.205982,-0.092150,-0.020233
12.157570,-0.204579,0.020960,-0.001535
12.187661,-0.147698,0.120788,0.078143
12.187661,-0.147698,0.120788,0.078143
12.207711,-0.083696,0.103174,0.145534
12.217720,-0.035761,0.070783,0.187173
12.237770,0.013229,0.019035,0.256498
12.267861,0.047188,-0.048477,0.281909
12.277871,0.047188,-0.057062,0.281904
12.287911,0.059954,-0.054906,0.277641
12.307961,0.085580,-0.027132,0.258616
12.328011,0.110113,0.001810,0.219297
12.338021,0.096257,0.018015,0.189425
12.358071,0.059977,0.038738,0.123194
12.368111,0.042873,0.036799,0.093227
12.388161,0.012844,-0.000214,0.036354
12.418221,-0.087616,-0.055031,-0.046436
12.418221,-0.087616,-0.055031,-0.046436
12.438301,-0.073928,-0.097636,-0.079714
12.458351,-0.049426,-0.101987,-0.079667
12.478402,-0.002406,-0.054063,-0.083583
12.488411,0.036023,-0.030678,-0.086571
12.508461,0.078755,0.014108,-0.101196
12.518502,0.075578,0.030213,-0.117152
12.538552,0.048854,0.025162,-0.159978
12.568612,-0.032295,-0.031195,-0.156196
12.568612,-0.032295,-0.031195,-0.156196
12.588662,-0.011080,-0.082651,-0.129675
12.608712,0.063509,-0.119466,-0.074096
12.628762,0.076389,-0.106865,-0.037682
12.638802,0.060469,-0.084407,-0.033347
12.658852,0.037134,-0.044827,-0.031088
12.668862,0.021216,-0.021296,-0.027816
12.688912,-0.037290,0.018392,-0.024585
12.729012,-0.043785,-0.041593,0.017842
12.739052,-0.041670,-0.057705,0.035931
12.759102,-0.010745,-0.074017,0.076532
12.769112,0.005307,-0.066735,0.106520
12.789162,0.049139,-0.041449,0.149490
12.809212,0.097145,-0.029898,0.158223
12.819252,0.086482,-0.028770,0.152857
12.839302,0.031008,-0.035964,0.131306
12.859352,0.001089,-0.041010,0.089539
12.869393,-0.025539,-0.021589,0.066057
12.889443,-0.049972,0.049333,-0.009519
12.909493,-0.056328,0.105245,-0.085115
12.919503,-0.072339,0.113992,-0.117164
12.939553,-0.082142,0.059751,-0.158040
12.959603,-0.099432,-0.039622,-0.135057
12.969643,-0.086749,-0.093186,-0.108570
12.989693,-0.012272,-0.178119,-0.040400
13.009743,0.081587,-0.180797,0.010052
13.019753,0.107269,-0.148888,0.019888
13.039803,0.090495,-0.036609,0.001145
13.059853,0.043740,0.047120,-0.057340
13.079903,-0.042659,0.039004,-0.088595
13.089943,-0.092816,0.017828,-0.093107
13.110023,-0.090861,-0.063488,-0.062508
13.120033,-0.069585,-0.101132,-0.020967
13.140083,-0.038559,-0.114533,0.081604
13.160133,0.085250,-0.085331,0.145109
13.170173,0.130114,-0.062099,0.169912
13.190224,0.084489,0.011732,0.171203
13.210274,0.105724,0.014072,0.113589
13.230324,0.060728,-0.043213,0.062988
13.240333,0.013707,-0.071748,0.031745
13.260414,-0.036616,-0.119328,-0.034849
13.270424,-0.056909,-0.121282,-0.059483
13.290474,-0.084537,-0.076212,-0.086051
13.310524,-0.096053,0.000727,-0.087856
13.320564,-0.069328,0.025162,-0.079120
13.340614,-0.035163,0.024864,-0.039503
13.360664,-0.035202,-0.019179,0.014767
13.380714,-0.008571,-0.046151,0.054237
13.390724,0.012770,-0.041989,0.062861
13.400764,0.024528,-0.027056,0.058692
13.420814,0.029915,0.016909,0.017254
13.440864,0.005337,0.024732,-0.039392
13.460914,-0.022556,-0.030614,-0.060027
13.470924,-0.032237,-0.065850,-0.054879
13.490974,-0.012100,-0.110799,-0.048627
13.511024,0.023097,-0.107765,-0.036765
13.521065,0.008254,-0.078877,-0.037738
13.541115,-0.018243,-0.012473,-0.059929
13.561165,-0.034148,0.029329,-0.081140
13.571174,-0.054362,0.045439,-0.086461
13.591225,-0.083135,0.048752,-0.089729
13.611275,-0.090590,0.047683,-0.084414
13.621315,-0.109741,0.056258,-0.078017
13.641365,-0.073483,0.048533,-0.050180
13.661415,0.003228,0.010664,0.001128
13.671455,0.011758,-0.003378,0.028858
13.691505,0.059656,-0.045345,0.062975
13.711555,0.100119,-0.063672,0.071546
13.721565,0.091602,-0.056134,0.064080
13.741615,0.054279,-0.039791,0.021326
13.761665,0.022209,-0.051232,-0.021545
13.771705,-0.007667,-0.056414,-0.034471
13.791756,-0.021625,-0.079742,-0.060257
13.801765,-0.006748,-0.093653,-0.064554
13.821815,-0.031217,-0.087252,-0.046432
13.851906,-0.062938,-0.017930,-0.004532
13.851906,-0.062938,-0.017930,-0.004532
13.871956,-0.062700,0.040563,0.047020
13.892006,-0.006067,0.080849,0.070868
13.902016,0.003554,0.088268,0.076271
13.922066,0.019478,0.072258,0.063420
13.942116,0.034262,0.037095,0.036589
13.952156,0.021408,0.026568,0.013003
13.972206,-0.013910,0.007758,-0.050208
13.992256,-0.030049,-0.030488,-0.081412
14.002266,-0.021608,-0.060408,-0.083666
14.022316,0.024038,-0.133226,-0.073202
14.042366,0.044236,-0.165441,-0.049798
14.052406,0.058100,-0.163361,-0.047614
14.072456,0.029458,-0.117372,-0.042134
14.092506,0.004161,-0.026621,-0.019342
14.102547,-0.021250,0.031100,-0.012730
14.122624,-0.034811,0.145474,-0.025045
14.142674,0.049440,0.163345,-0.022591
14.152683,0.060058,0.149432,-0.023696
14.172733,0.053467,0.090828,-0.047492
14.192783,0.030901,0.035470,-0.069181
14.202824,-0.018127,0.042098,-0.082103
14.222874,-0.052177,0.087274,-0.126849
14.242924,0.018173,0.102103,-0.149017
14.252934,0.044797,0.092390,-0.145784
14.272984,0.062774,0.043226,-0.150240
14.293034,0.017919,0.011344,-0.152651
14.303074,-0.045997,0.024377,-0.154903
14.323124,-0.118313,0.083359,-0.156960
14.343174,-0.095722,0.149411,-0.138426
14.353184,-0.075364,0.182396,-0.126463
14.373234,-0.016665,0.206727,-0.117640
14.393284,-0.012447,0.188543,-0.114510
14.403324,-0.027421,0.165062,-0.107185
14.423374,-0.026600,0.063499,-0.085230
14.443424,-0.039657,-0.060567,-0.037784
14.453434,-0.033391,-0.121581,-0.012418
14.473484,0.020816,-0.210694,0.050335
14.493565,0.026158,-0.221527,0.079140
14.503575,0.033615,-0.220463,0.074893
14.523625,-0.003710,-0.220271,0.059836
14.543675,-0.001596,-0.218066,0.043829
14.553715,-0.009040,-0.208400,0.037445
14.573765,-0.042994,-0.148445,0.029089
14.593815,-0.060897,-0.086593,0.060310
14.603825,-0.043755,-0.071849,0.092474
14.623875,0.034190,-0.058548,0.162186
14.643925,0.127039,-0.040932,0.212732
14.653965,0.150534,-0.030385,0.224597
14.674015,0.171784,-0.042095,0.202168
14.694065,0.133242,-0.076969,0.150622
14.704075,0.105431,-0.098106,0.122672
14.724125,0.040268,-0.121121,0.065768
14.744175,0.010362,-0.106817,-0.002613
14.754215,0.001853,-0.088534,-0.023914
14.774265,-0.036414,-0.028408,-0.065396
14.784275,-0.045941,0.004810,-0.082357
14.804325,-0.091622,0.066970,-0.097144
14.834416,-0.108540,0.113994,-0.092695
14.844425,-0.089338,0.116032,-0.085155
14.854466,-0.077612,0.110598,-0.073398
14.874516,-0.021266,0.054847,-0.066029
14.894566,0.023295,-0.029755,-0.047078
14.904606,0.006160,-0.063909,-0.039809
14.924656,-0.000343,-0.110943,-0.026163
14.934666,0.011357,-0.125988,-0.014451
14.954716,0.046570,-0.114385,-0.007890
14.974766,0.062647,-0.078097,-0.014083
14.984806,0.053105,-0.058833,-0.016155
15.004856,-0.003325,-0.032979,-0.024734
15.024906,-0.025703,-0.027531,-0.032248
15.044956,-0.055482,-0.013632,-0.015173
15.054966,-0.052241,-0.000853,-0.009762
15.075016,0.016006,0.008507,-0.003120
15.085056,0.046908,0.005192,-0.000914
15.105106,0.018150,0.014922,-0.006289
15.135179,0.047755,-0.046902,-0.051364
15.135179,0.047755,-0.046902,-0.051364
15.155229,-0.007816,-0.094723,-0.063494
15.175279,-0.038818,-0.133103,-0.056284
15.185320,-0.043075,-0.138495,-0.042435
15.205370,-0.005665,-0.124950,0.003666
15.225420,-0.021350,-0.035370,0.041434
15.235430,-0.007360,0.007247,0.053425
15.255480,0.010966,0.072240,0.073011
15.285570,-0.028418,0.086211,0.081514
15.285570,-0.028418,0.086211,0.081514
15.305620,0.056646,0.002545,0.100581
15.325670,0.025685,-0.027348,0.119582
15.335710,0.037396,-0.023038,0.103611
15.355760,0.164208,-0.009390,0.066639
15.375810,0.153562,0.020769,0.019751
15.385820,0.115123,0.021116,-0.027355
15.405870,0.024293,-0.012308,-0.123904
15.435961,-0.115588,-0.054116,-0.220627
15.435961,-0.115588,-0.054116,-0.220627
15.456011,-0.169949,-0.043149,-0.244227
15.476061,-0.176256,-0.029402,-0.211064
15.486070,-0.148489,-0.030747,-0.171470
15.506120,-0.084325,-0.015482,-0.055853
15.526171,-0.005197,0.014680,0.060943
15.536211,0.033280,0.028216,0.108115
15.556261,0.088752,0.017103,0.161626
15.586321,0.125774,-0.080154,0.151655
15.586321,0.125774,-0.080154,0.151655
15.606371,0.078694,-0.124657,0.109654
15.626421,0.032780,-0.105928,0.019886
15.636461,0.010404,-0.078945,-0.024914
15.656511,-0.044938,-0.015459,-0.087791
15.676561,-0.082175,0.026464,-0.119742
15.686571,-0.074728,0.016788,-0.111221
15.706651,-0.081129,-0.011180,-0.064370
15.736711,-0.045885,-0.033068,0.023217
15.736711,-0.045885,-0.033068,0.023217
15.756761,0.020265,-0.027042,0.058680
15.776811,0.096948,-0.055128,0.073714
15.786852,0.094809,-0.062638,0.082218
15.806902,0.067029,-0.072022,0.053255
15.826952,0.074382,-0.081400,-0.001248
15.836962,0.039211,-0.069437,-0.022653
15.857012,-0.057697,-0.011206,-0.074987
15.877062,-0.067272,0.023242,-0.126125
15.887102,-0.053408,0.026400,-0.126072
15.907152,-0.061948,0.001694,-0.089893
15.927202,-0.010881,-0.052041,-0.053687
15.937212,0.008288,-0.074676,-0.022763
15.957262,0.046651,-0.097405,0.014623
15.977312,0.072272,-0.085771,0.021158
15.987352,0.072284,-0.077192,0.013721
16.007402,0.078592,-0.094173,-0.013047
16.037462,-0.043028,-0.133256,-0.021045
16.037462,-0.043028,-0.133256,-0.021045
16.057512,-0.058958,-0.124767,0.001383
16.077562,-0.083168,-0.028701,0.028476
16.087602,-0.064888,0.027820,0.033067
16.107671,-0.032625,0.122671,0.052833
16.117712,-0.057039,0.153675,0.062526
16.137762,-0.077248,0.163307,0.072129
16.157812,-0.049623,0.122554,0.089104
16.177862,-0.037980,0.088302,0.097520
16.187872,-0.002917,0.055138,0.085710
16.207922,0.078891,-0.024024,0.057788
16.217962,0.083024,-0.064558,0.044789
16.238012,0.071061,-0.132706,0.010251
16.258062,0.057095,-0.161393,-0.011288
16.268072,0.033692,-0.144225,-0.012339
16.288122,0.033815,-0.079983,-0.047286
16.308172,0.036072,-0.016830,-0.079028
16.338262,-0.050157,0.048842,-0.131298
16.338262,-0.050157,0.048842,-0.131298
16.358312,-0.094901,0.046770,-0.114340
16.368322,-0.119379,0.046739,-0.090907
16.388372,-0.068214,0.019621,-0.037483
16.408422,0.046890,-0.024912,0.041672
16.418462,0.072479,-0.039030,0.073722
16.438513,0.134215,-0.077757,0.090801
16.458563,0.173496,-0.135568,0.093841
16.478613,0.128620,-0.156610,0.057298
16.488622,0.100869,-0.154237,0.026255
16.508672,0.019939,-0.099262,-0.026052
16.518713,-0.006630,-0.054170,-0.057958
16.538763,-0.055502,0.033827,-0.114292
16.568853,-0.123515,0.112058,-0.124792
16.568853,-0.123515,0.112058,-0.124792
16.588903,-0.106439,0.103313,-0.093808
16.608953,-0.076610,0.070940,-0.043673
16.629003,0.004297,0.004187,0.014987
16.639013,0.038331,-0.036632,0.041593
16.659063,0.075521,-0.099948,0.080920
16.669103,0.085083,-0.116043,0.090484
16.689153,0.086153,-0.111750,0.085167
16.719213,0.040434,-0.035469,0.020240
16.719213,0.040434,-0.035469,0.020240
16.739263,-0.010639,0.031212,-0.043679
16.759313,-0.062871,0.060494,-0.102436
16.779363,-0.132178,0.052196,-0.106940
16.789404,-0.121587,0.020058,-0.093176
16.809454,-0.033266,-0.067041,-0.028183
16.819463,0.004014,-0.096173,0.009170
16.839513,0.084995,-0.121150,0.041322
16.869604,0.061708,-0.059104,0.035142
16.869604,0.061708,-0.059104,0.035142
16.889654,0.006408,0.009631,-0.008482
16.909704,-0.072353,0.064483,-0.036214
16.929754,-0.095800,0.055940,-0.020296
16.939794,-0.094755,0.037691,-0.001152
16.959844,-0.061726,0.009610,0.042603
16.969854,-0.026557,-0.000192,0.058677
16.989904,0.050153,-0.020823,0.078020
17.019994,0.105418,-0.068979,0.060853
17.019994,0.105418,-0.068979,0.060853
17.040044,0.104197,-0.108342,0.029685
17.060095,0.133843,-0.148752,-0.027039
17.090154,-0.028139,-0.083654,-0.131864
17.090154,-0.028139,-0.083654,-0.131864
17.110218,-0.051488,-0.016025,-0.189292
17.120259,-0.083380,0.016137,-0.193501
17.140309,-0.134391,0.058924,-0.173143
17.160359,-0.101275,0.047803,-0.102602
17.170369,-0.065002,0.026029,-0.039580
17.190419,0.018102,-0.040939,0.062881
17.210469,0.118171,-0.124922,0.138603
17.230519,0.128843,-0.140079,0.174880
17.240559,0.115020,-0.123980,0.167441
17.260609,0.089512,-0.069185,0.115287
17.270619,0.060777,-0.034751,0.080120
17.290669,-0.032968,0.019269,0.012819
17.310719,-0.117220,0.024022,-0.031189
17.320759,-0.128976,0.014469,-0.035539
17.340809,-0.139604,0.014407,-0.015273
17.360859,-0.116023,0.045149,0.016984
17.380909,-0.018963,0.059684,0.038686
17.390950,0.007685,0.053124,0.052615
17.411000,-0.003045,0.021070,0.063116
17.421009,-0.002063,-0.006674,0.057646
17.441059,0.013784,-0.054757,0.052122
17.461110,-0.000101,-0.056772,0.036050
17.471150,-0.005410,-0.044967,0.027546
17.491200,0.013802,-0.023575,0.007404
17.511250,0.021292,0.000007,-0.015964
17.531300,-0.034150,0.017486,-0.060900
17.541310,-0.057624,0.014414,-0.072730
17.561360,-0.067274,-0.010147,-0.066463
17.571400,-0.040678,-0.035930,-0.052625
17.591450,0.040239,-0.091943,-0.006733
17.611500,0.091355,-0.128601,0.031691
17.621510,0.087086,-0.136108,0.041257
17.641560,0.039160,-0.118830,0.033729
17.651600,0.012549,-0.098382,0.018797
17.671650,-0.035261,-0.029762,-0.005579
17.691700,-0.020223,0.024755,-0.026644
17.701710,-0.031886,0.046146,-0.025507
17.721791,-0.095725,0.084789,-0.023364
17.741841,-0.092493,0.096516,-0.021163
17.761891,-0.066892,0.087748,0.008776
17.771901,-0.051995,0.067307,0.030085
17.791951,0.033108,-0.010017,0.063069
17.801991,0.086306,-0.054066,0.082235
17.822041,0.106460,-0.091530,0.086387
17.852101,0.042421,-0.072722,-0.007704
17.852101,0.042421,-0.072722,-0.007704
17.872151,-0.053455,-0.015461,-0.081405
17.892201,-0.106719,0.022332,-0.132648
17.912251,-0.136526,0.026625,-0.116687
17.922291,-0.137582,0.014750,-0.088972
17.942341,-0.094972,-0.033795,-0.015377
17.952351,-0.060863,-0.059769,0.033732
17.972401,-0.007495,-0.084964,0.130968
18.002491,0.119487,-0.075087,0.213618
18.002491,0.119487,-0.075087,0.213618
18.022541,0.138777,-0.027011,0.196807
18.042591,0.050355,0.029167,0.120985
18.052601,0.020467,0.038025,0.075011
18.072651,-0.061708,0.041870,-0.004245
18.092701,-0.133181,0.052002,-0.065283
18.102742,-0.109775,0.049901,-0.088729
18.122804,-0.049093,0.024069,-0.087615
18.142854,-0.032064,0.004699,-0.068432
18.152894,0.010514,-0.018969,-0.060949
18.172944,0.044582,-0.045889,-0.037481
18.192994,0.007311,-0.040484,-0.025808
18.203004,0.010514,-0.032973,-0.035378
18.223054,0.020127,-0.020144,-0.044905
18.243104,0.015878,-0.006171,-0.060873
18.253144,0.019037,-0.012523,-0.074782
18.273194,-0.030040,-0.034826,-0.067545
18.293244,-0.038641,-0.074418,-0.045324
18.303254,-0.014170,-0.102370,-0.022956
18.323304,0.038050,-0.136996,0.036845
18.343354,0.034983,-0.111548,0.077549
18.353394,0.046756,-0.094504,0.078730
18.373445,0.034123,-0.038946,0.082163
18.393495,-0.033933,0.044807,0.033233
18.403504,-0.034985,0.065233,0.005553
18.423554,-0.115940,0.094436,-0.016965
18.443604,-0.149044,0.076434,-0.026756
18.453645,-0.137354,0.054962,-0.010802
18.473695,-0.138328,0.057906,0.044757
18.493745,-0.004058,0.034911,0.072792
18.503755,0.035373,0.016482,0.103792
18.523835,-0.009405,-0.012409,0.146261
18.543885,0.087365,-0.091751,0.146153
18.553895,0.118223,-0.113235,0.151477
18.573945,0.044769,-0.059408,0.110937
18.593995,-0.003116,0.033147,-0.006261
18.604035,-0.003110,0.065442,-0.060587
18.624085,-0.041575,0.069105,-0.131178
18.634095,-0.049160,0.037208,-0.155919
18.654145,-0.042996,-0.042872,-0.163758
18.674195,0.000557,-0.100728,-0.154298
18.684236,0.014398,-0.110420,-0.146828
18.704286,0.012327,-0.105220,-0.115831
18.724336,0.056102,-0.096990,-0.079352
18.744386,0.116883,-0.102669,-0.049300
18.754395,0.076438,-0.088710,-0.037596
18.774445,-0.025783,-0.047746,-0.048367
18.794496,-0.055532,-0.011319,-0.052549
18.814546,-0.098003,0.030322,-0.021492
18.824586,-0.093708,0.034514,-0.007573
18.834596,-0.072394,0.023679,0.010594
18.854646,-0.051136,-0.019294,0.049973
18.874696,-0.036217,-0.041957,0.089431
18.894746,-0.022308,-0.033554,0.109806
18.904786,0.003300,-0.028343,0.119515
18.924836,0.026802,-0.016743,0.134590
18.934876,0.020454,0.002521,0.130390
18.954926,0.001303,0.036949,0.089908
18.984986,-0.068041,0.056776,0.009694
18.984986,-0.068041,0.056776,0.009694
19.005036,-0.086325,0.031503,-0.053500
19.025086,-0.143919,0.007047,-0.036684
19.045136,-0.095993,-0.022085,-0.006779
19.055177,-0.010765,-0.044869,0.010440
19.075227,0.063893,-0.049585,0.053353
19.085237,0.039424,-0.034565,0.055493
19.105287,0.055323,-0.039724,0.006374
19.125352,0.050908,-0.080165,-0.020535
19.135392,-0.013066,-0.083105,-0.032476
19.155442,-0.009925,-0.080782,-0.074116
19.175492,-0.003466,-0.048689,-0.089970
19.195542,-0.073636,0.018854,-0.097322
19.205552,-0.082098,0.044532,-0.101497
19.225602,-0.057556,0.043284,-0.080070
19.235642,-0.056520,0.015367,-0.049221
19.255692,-0.050197,-0.049058,0.019925
19.275742,-0.008611,-0.078341,0.086131
19.285752,0.015952,-0.069958,0.103330
19.305802,0.066147,-0.032743,0.103645
19.325883,0.051270,-0.000520,0.074914
19.345933,0.015982,-0.014041,0.022410
19.355942,0.015874,-0.041706,0.000915
19.375992,-0.043916,-0.068109,-0.020740
19.386033,-0.072673,-0.055150,-0.031440
19.406083,-0.042768,-0.018821,-0.055754
19.426133,-0.013938,-0.002926,-0.049190
19.436143,-0.032021,0.008870,-0.047048
19.456193,-0.011826,-0.008257,-0.052414
19.476243,0.016840,-0.057551,-0.036545
19.496293,-0.063004,-0.037112,-0.013168
19.506333,-0.065071,-0.014689,-0.010931
19.526383,-0.031920,0.021478,-0.003191
19.536393,-0.038275,0.036454,-0.004206
19.556443,-0.061663,0.057884,-0.003101
19.576493,-0.041441,0.041749,0.007560
19.586533,-0.024432,0.021367,0.014989
19.606583,-0.056429,-0.004311,0.046825
19.626633,-0.012776,-0.034471,0.071372
19.636643,0.023430,-0.052804,0.084204
19.656693,0.052213,-0.052918,0.088556
19.676743,0.062860,-0.034606,0.048080
19.686783,0.054344,-0.016297,0.021437
19.706834,-0.024504,0.025902,-0.040537
19.736924,-0.051263,0.022041,-0.108995
19.736924,-0.051263,0.022041,-0.108995
19.756974,-0.021560,-0.037936,-0.093174
19.777024,-0.036531,-0.082973,-0.044290
19.787034,-0.003506,-0.097039,-0.028242
19.807084,0.084935,-0.112344,-0.014183
19.827134,0.034911,-0.083311,-0.021662
19.837174,0.012533,-0.072478,-0.038764
19.857224,0.017821,-0.076676,-0.057997
19.877274,-0.049265,-0.057256,-0.053818
19.887284,-0.075873,-0.043281,-0.054893
19.907334,-0.039611,-0.037017,-0.049422
19.927384,-0.039519,-0.026535,-0.007712
19.937424,-0.058654,-0.018010,0.009367
19.957474,-0.033014,-0.006437,0.028720
19.977524,0.017168,0.006044,0.065237
19.987534,0.023630,0.017659,0.088811
20.007584,0.066353,0.029080,0.128507
20.037675,0.109008,0.027793,0.145710
20.037675,0.109008,0.027793,0.145710
20.057725,0.109003,0.046120,0.109477
20.077775,0.081229,0.059338,0.043234
20.087784,0.038545,0.060717,0.006803
20.107835,-0.005297,0.045159,-0.060689
20.117886,-0.002193,0.021745,-0.080019
20.137936,-0.016202,-0.021889,-0.102697
20.157986,0.000747,-0.060395,-0.101764
20.178036,-0.030098,-0.057262,-0.065515
20.188076,-0.018327,-0.046677,-0.053682
20.208126,0.029675,-0.045886,-0.027909
20.218136,0.036078,-0.049166,-0.016156
20.238186,0.050944,-0.070584,-0.014080
20.268276,0.065798,-0.077961,-0.045052
20.268276,0.065798,-0.077961,-0.045052
20.288326,0.017987,-0.010414,-0.068365
20.308377,-0.004204,0.078463,-0.103257
20.328427,0.034242,0.120104,-0.127523
20.338436,0.010837,0.139434,-0.133905
20.358486,-0.019993,0.179143,-0.154099
20.368527,-0.032776,0.184550,-0.159450
20.388577,-0.061563,0.171752,-0.143566
20.418637,-0.049886,0.122311,-0.085016
20.418637,-0.049886,0.122311,-0.085016
20.438687,0.020294,0.041806,-0.046748
20.458737,0.077599,-0.058852,-0.028906
20.468777,0.082812,-0.104821,-0.022699
20.488827,0.069854,-0.169958,-0.015566
20.508877,0.068762,-0.178488,-0.017746
20.518887,0.054977,-0.152813,-0.017662
20.538967,0.030688,-0.066190,-0.025865
20.559017,0.027684,0.012922,-0.041523
20.569027,0.018131,0.027910,-0.042546
20.589077,0.002082,0.002306,-0.037371
20.609127,0.002983,-0.068272,-0.018474
20.629177,0.005054,-0.110100,0.017653
20.639218,0.016800,-0.109131,0.030508
20.659268,0.074439,-0.082660,0.039339
20.669277,0.087280,-0.062396,0.036265
20.689327,0.061757,-0.033408,0.021377
20.709378,0.002099,-0.010676,-0.002181
20.719418,-0.041555,0.011948,-0.013945
20.739468,-0.076635,0.055938,-0.033062
20.759518,-0.070221,0.063398,-0.034077
20.789578,-0.032964,0.028951,-0.002091
20.789578,-0.032964,0.028951,-0.002091
20.809628,-0.013875,-0.025747,0.034023
20.819668,0.001001,-0.052580,0.052096
20.839718,0.011626,-0.077288,0.075510
20.859768,0.002079,-0.063394,0.079822
20.869778,0.005306,-0.054881,0.084144
20.889828,0.018148,-0.041085,0.093859
20.909878,0.037290,-0.057172,0.094904
20.919918,0.041524,-0.068943,0.096996
20.939968,0.012745,-0.063454,0.085192
20.960018,0.017061,-0.038860,0.075706
20.970059,0.020297,-0.027143,0.080044
20.990109,0.051184,-0.031485,0.073699
21.010159,0.081990,-0.065734,0.068281
21.020169,0.077662,-0.085980,0.061764
21.040219,0.070033,-0.134975,0.039079
21.060269,0.024154,-0.143288,0.021821
21.070309,0.003923,-0.130357,0.011145
21.090359,-0.016245,-0.091770,-0.004752
21.110409,-0.011835,-0.039465,-0.002356
21.120439,0.010624,-0.016084,0.006363
21.140489,0.039492,0.005075,0.028975
21.160539,0.025615,-0.009892,0.041684
21.170579,0.017035,-0.033394,0.049027
21.190629,0.008397,-0.082562,0.063725
21.210679,0.063780,-0.108473,0.085120
21.240739,0.182137,-0.100410,0.105782
21.240739,0.182137,-0.100410,0.105782
21.260789,0.218508,-0.047091,0.097589
21.270829,0.194045,-0.012701,0.068842
21.290879,0.076853,0.054321,-0.021963
21.310929,-0.052085,0.104219,-0.096858
21.320970,-0.077684,0.114060,-0.127861
21.341020,-0.117138,0.125019,-0.159964
21.361070,-0.107563,0.105654,-0.136529
21.391130,-0.055361,0.047386,-0.045862
21.391130,-0.055361,0.047386,-0.045862
21.411180,0.010647,-0.021545,0.031974
21.421220,0.063872,-0.062446,0.062906
21.441270,0.118094,-0.126830,0.090525
21.461320,0.100919,-0.151165,0.054043
21.471330,0.068918,-0.144512,0.024076
21.491380,-0.022687,-0.094831,-0.030421
21.511430,-0.091811,-0.015377,-0.072965
21.531480,-0.119292,0.068006,-0.071578
21.541520,-0.138317,0.117117,-0.055375
21.561570,-0.116767,0.182015,-0.017621
21.571580,-0.074092,0.183896,0.007074
21.591630,-0.037804,0.182538,0.043488
21.611680,-0.003731,0.177143,0.031806
21.621720,-0.003763,0.170781,0.022162
21.641771,0.020581,0.129229,-0.015355
21.651780,0.036415,0.087650,-0.041145
21.671830,0.020137,0.005679,-0.085375
21.691880,-0.032267,-0.039901,-0.122054
21.711930,-0.076003,-0.047178,-0.133960
21.721971,-0.089824,-0.036469,-0.130743
21.742021,-0.052432,-0.013177,-0.113438
21.762071,-0.025648,0.019690,-0.081162
21.772111,-0.030919,0.036759,-0.073618
21.792161,-0.029843,0.033491,-0.060812
21.802171,-0.032002,0.015272,-0.045949
21.822221,-0.021413,-0.028709,-0.011945
21.842271,0.046686,-0.096438,0.035992
21.852311,0.087164,-0.119122,0.062702
21.872361,0.113800,-0.132105,0.079806
21.892411,0.123342,-0.136286,0.054175
21.912461,0.029592,-0.110255,0.033743
21.922471,-0.038556,-0.081149,0.023010
21.942521,-0.083156,-0.017966,0.016777
21.952562,-0.083041,0.019371,0.025499
21.972612,-0.038067,0.092888,0.031312
21.992662,-0.030501,0.134538,0.026189
22.002671,-0.065639,0.148550,0.022954
22.022721,-0.131724,0.152014,0.013174
22.042772,-0.094506,0.115538,0.022718
22.062822,-0.045553,0.076832,0.044034
22.072862,-0.012566,0.056424,0.046165
22.092912,0.065068,0.000695,0.034366
22.102922,0.097996,-0.028145,0.012956
22.123028,0.043500,-0.051220,-0.038578
22.143078,-0.021619,-0.047446,-0.114583
22.153088,-0.036572,-0.041911,-0.145576
22.173138,-0.076000,-0.026721,-0.169114
22.193188,-0.069622,-0.036383,-0.162733
22.213238,-0.043052,-0.078246,-0.136152
22.223278,-0.049454,-0.094360,-0.111677
22.243329,-0.040878,-0.098852,-0.071083
22.253338,-0.016333,-0.096876,-0.053914
22.273388,0.015716,-0.087526,-0.020667
22.293438,0.054164,-0.070665,0.000884
22.303479,0.061664,-0.057889,0.004169
22.323529,0.008406,-0.035193,-0.016166
22.343579,-0.067358,-0.049737,-0.050627
22.363629,-0.075918,-0.075456,-0.026204
22.373639,-0.067340,-0.071338,0.000545
22.393689,0.016946,-0.060041,0.038218
22.403729,0.046819,-0.055927,0.051139
22.423779,0.080939,-0.060391,0.068304
22.443829,0.062780,-0.084980,0.086297
22.453839,0.039315,-0.097775,0.097922
22.473889,0.038257,-0.102104,0.110717
22.493939,0.073558,-0.047693,0.098253
22.514019,0.063042,0.019757,0.069702
22.524029,0.035365,0.043438,0.049441
22.544079,-0.014784,0.040549,0.017242
22.554120,-0.041466,0.027825,0.016040
22.574170,-0.066018,0.004330,0.032953
22.594220,-0.014802,0.008288,0.064091
22.604229,-0.001943,0.025263,0.079162
22.624279,0.045038,0.057153,0.078374
22.634320,0.053563,0.063594,0.065610
22.654370,0.034328,0.070281,0.019655
22.674420,-0.044618,0.078322,-0.045686
22.684430,-0.056428,0.063550,-0.075698
22.704480,-0.050257,-0.000394,-0.108030
22.724530,-0.087698,-0.052617,-0.105176
22.734570,-0.093054,-0.069752,-0.091385
22.754620,-0.056794,-0.082867,-0.052891
22.774670,-0.022579,-0.068244,-0.006795
22.784680,-0.025704,-0.050150,0.008237
22.804730,0.003161,-0.032210,0.034039
22.824780,0.012806,-0.021638,0.050139
22.834820,-0.001027,-0.014122,0.051205
22.854870,-0.047886,0.006381,0.038354
22.874920,-0.056442,-0.001036,0.031885
22.894970,-0.040519,-0.026739,0.036081
22.905011,-0.035206,-0.035325,0.041396
22.925061,0.006316,-0.051479,0.041434
22.935070,0.032933,-0.059015,0.036131
22.955121,0.022248,-0.057817,0.015811
22.975171,-0.003370,-0.050071,-0.023747
22.985211,-0.014052,-0.049960,-0.039799
23.005261,-0.044947,-0.032667,-0.062235
23.025311,-0.053431,-0.016615,-0.063251
23.035321,-0.040640,-0.020969,-0.054690
23.055371,0.004057,-0.070457,-0.008868
23.075421,0.023063,-0.156130,0.028167
23.085461,0.033623,-0.197865,0.038681
23.105511,0.061229,-0.246097,0.056689
23.135593,0.047446,-0.208579,0.036532
23.135593,0.047446,-0.208579,0.036532
23.155643,0.018806,-0.136747,-0.002731
23.175693,-0.028024,-0.095867,-0.033646
23.185733,-0.050393,-0.089371,-0.036881
23.205783,-0.084460,-0.089382,-0.011338
23.225833,-0.091863,-0.083077,0.015376
23.235843,-0.077949,-0.069304,0.029367
23.255893,-0.011661,-0.019549,0.076787
23.275943,0.037642,0.061282,0.113625
23.285984,0.050517,0.091133,0.115938
23.306034,0.044162,0.110417,0.107466
23.326084,0.020601,0.087155,0.074176
23.336124,0.010951,0.078749,0.051677
23.356174,0.010861,0.070418,0.006772
23.376224,0.032053,0.047042,-0.032803
23.386234,0.042622,0.021438,-0.045714
23.406284,0.056283,-0.040471,-0.061992
23.426334,0.050804,-0.086299,-0.078247
23.436374,0.040106,-0.095830,-0.087936
23.456424,-0.007841,-0.077408,-0.111482
23.476474,-0.055709,-0.039845,-0.117846
23.486484,-0.061005,-0.030236,-0.113542
23.506534,-0.047083,-0.022952,-0.082491
23.526584,-0.067233,-0.008123,-0.042953
23.536624,-0.051203,-0.000770,-0.027919
23.556675,-0.025550,0.012918,-0.004282
23.576725,-0.013760,0.035292,-0.000939
23.586734,-0.012696,0.036371,-0.004136
23.606784,-0.026599,0.034412,-0.031957
23.626834,-0.051214,0.006807,-0.049247
23.636875,-0.054474,-0.017761,-0.046168
23.656925,-0.034329,-0.069198,-0.022855
23.676975,0.005091,-0.088670,0.002799
23.686985,0.026427,-0.085571,0.010350
23.707065,0.009468,-0.053498,0.014728
23.737125,-0.023521,-0.024466,-0.004454
23.737125,-0.023521,-0.024466,-0.004454
23.757175,-0.042815,-0.074687,0.014483
23.777225,-0.049316,-0.129267,0.043049
23.787265,-0.058886,-0.133614,0.065434
23.807315,-0.031043,-0.105037,0.100898
23.827365,0.019206,-0.062609,0.127943
23.837375,0.019278,-0.038062,0.131263
23.857425,0.023562,-0.021981,0.115328
23.877475,-0.002112,-0.034526,0.075674
23.887516,-0.019220,-0.041835,0.052091
23.907566,-0.041733,-0.069356,0.015580
23.917575,-0.048165,-0.078911,0.008039
23.937625,-0.020463,-0.075742,-0.003620
23.967716,-0.003255,-0.023504,0.004153
23.977726,0.007414,-0.018189,0.002071
23.987766,0.020193,-0.021429,0.001023
24.007816,0.007322,-0.057753,0.012566
24.027866,-0.018323,-0.071467,-0.005730
24.037876,-0.018347,-0.075698,-0.014296
24.057926,-0.014163,-0.105624,-0.012289
24.067966,-0.009942,-0.123818,-0.007022
24.088016,0.010228,-0.164561,0.013137
24.118123,0.051820,-0.166933,0.034605
24.118123,0.051820,-0.166933,0.034605
24.138173,0.030597,-0.122993,0.016594
24.158223,0.012498,-0.105761,-0.001534
24.178274,-0.029098,-0.115228,-0.003830
24.188283,-0.058916,-0.107665,-0.001740
24.208333,-0.074829,-0.085227,0.006867
24.218374,-0.065173,-0.067149,0.016594
24.238424,-0.071446,-0.034119,0.037029
24.258474,-0.053269,-0.021438,0.053162
24.268483,-0.035152,-0.026877,0.061732
24.288534,-0.044749,-0.037601,0.077678
24.308584,-0.019233,-0.066569,0.088294
24.318624,-0.011804,-0.081575,0.094652
24.338674,-0.028868,-0.094410,0.110568
24.358724,-0.026704,-0.083748,0.112761
24.368734,-0.028801,-0.074155,0.118141
24.388784,-0.051145,-0.059121,0.116014
24.408834,-0.039522,-0.085772,0.097761
24.418874,-0.047054,-0.105987,0.086962
24.438924,-0.077039,-0.143141,0.059998
24.458974,-0.053691,-0.165523,0.034320
24.479024,-0.061110,-0.134392,0.005605
24.489065,-0.068536,-0.112933,-0.010338
24.509115,-0.066352,-0.085098,-0.026223
24.519124,-0.073777,-0.074415,-0.021920
24.539174,-0.079020,-0.047740,-0.013263
24.559224,-0.060827,-0.027569,-0.000299
24.569265,-0.060788,-0.016920,0.006161
24.589315,-0.066061,0.008773,-0.003346
24.609365,-0.071370,0.027041,-0.023570
24.619375,-0.088420,0.034628,-0.035332
24.639425,-0.094884,0.018711,-0.052516
24.659475,-0.082184,-0.013363,-0.053701
24.669515,-0.089657,-0.017611,-0.053742
24.689565,-0.062987,-0.015622,-0.040840
24.709615,-0.007511,-0.007355,-0.020352
24.719625,-0.006409,0.005451,-0.019220
24.739675,-0.002131,0.017241,-0.030903
24.759725,-0.034143,0.011003,-0.044907
24.769765,-0.045908,-0.002832,-0.047142
24.789815,-0.024725,-0.059573,-0.032397
24.809865,-0.019462,-0.102469,0.001598
24.819875,-0.006694,-0.114293,0.009055
24.839925,-0.013054,-0.105764,0.016555
24.859975,-0.027893,-0.076892,0.018787
24.870015,-0.017226,-0.069416,0.011374
24.890066,-0.032147,-0.062904,-0.000386
24.910116,-0.048161,-0.063844,-0.016458
24.920156,-0.027947,-0.075642,-0.019663
24.940206,-0.002445,-0.114261,-0.000547
24.960256,0.009238,-0.129250,-0.000586
24.970266,0.008188,-0.118527,-0.009084
24.990316,-0.036483,-0.075584,-0.026096
25.010366,-0.031103,-0.046681,-0.044104
25.020406,-0.016182,-0.048880,-0.040868
25.040456,-0.010907,-0.083198,-0.014310
25.060506,0.027350,-0.134674,0.004780
25.080556,0.009199,-0.138821,-0.009177
25.090566,0.019843,-0.130196,-0.033676
25.110616,0.028339,-0.109660,-0.091239
25.120658,0.015561,-0.091342,-0.116824
25.140708,-0.036657,-0.059955,-0.169163
25.160758,-0.091968,-0.006262,-0.193630
25.170768,-0.134484,0.034443,-0.190351
25.190818,-0.115097,0.092985,-0.162247
25.210868,-0.089350,0.112838,-0.087307
25.220909,-0.073295,0.114725,-0.045593
25.240959,-0.021056,0.084344,0.019569
25.261009,-0.073278,0.056500,0.071635
25.271049,-0.067998,0.029709,0.087546
25.291099,-0.002023,-0.026190,0.119510
25.311149,0.004334,-0.047635,0.133313
25.321159,0.029855,-0.064770,0.125825
25.341209,0.065978,-0.094688,0.104419
25.361259,0.069050,-0.118001,0.063725
25.371299,0.081733,-0.145712,0.043333
25.391349,0.049604,-0.189282,0.019538
25.411399,0.011101,-0.221048,-0.011697
25.421409,-0.002757,-0.216686,-0.021329
25.441459,-0.063384,-0.160866,-0.040460
25.461509,-0.021758,-0.135335,-0.047702
25.471549,-0.015331,-0.131150,-0.033777
25.491600,0.003898,-0.125969,-0.013404
25.501609,0.020970,-0.123929,-0.004801
25.521659,-0.014095,-0.097222,0.017661
25.541709,-0.001227,-0.069503,0.018896
25.561759,0.011601,-0.064281,0.034979
25.571800,0.017984,-0.069651,0.037108
25.591850,0.055190,-0.102858,0.032781
25.611900,0.014673,-0.106983,0.029444
25.621910,0.005051,-0.111168,0.017648
25.641960,-0.003508,-0.118575,0.009043
25.652000,-0.013025,-0.095085,0.016606
25.672050,0.012704,-0.035319,0.007346
25.702140,0.028896,0.035077,0.015201
25.702140,0.028896,0.035077,0.015201
25.722190,0.076785,0.002833,0.025863
25.742240,0.066039,-0.038868,0.043795
25.762290,0.062755,-0.060125,0.024458
25.772300,0.055294,-0.054715,0.014849
25.792350,0.023402,-0.017168,0.001052
25.802391,0.049013,-0.003348,-0.003085
25.822441,0.074668,0.013565,0.016294
25.852500,0.089632,0.028462,0.017474
25.852500,0.089632,0.028462,0.017474
25.872550,0.069367,0.023188,0.017393
25.892600,0.049091,0.024413,-0.001885
25.912651,0.014925,0.008556,-0.012737
25.922691,0.004217,-0.007408,-0.017115
25.942741,0.010496,-0.049073,-0.018363
25.952751,-0.005490,-0.053334,-0.009881
25.972801,0.000934,-0.040519,-0.014076
25.992851,-0.008620,-0.023376,-0.019362
26.002891,-0.020332,-0.019066,-0.019374
26.022941,0.005193,-0.036210,-0.024726
26.042991,-0.024666,-0.045755,-0.018444
26.063041,-0.012962,-0.045733,-0.031230
26.073081,-0.019337,-0.040387,-0.028018
26.093131,-0.005472,-0.034000,-0.033291
26.103141,0.005181,-0.034019,-0.036466
26.123215,-0.036354,-0.018903,-0.042918
26.143265,-0.034229,-0.012426,-0.058905
26.153306,-0.044876,-0.004886,-0.065308
26.173356,-0.040624,-0.010249,-0.063185
26.193406,-0.047013,-0.013478,-0.053604
26.203416,-0.025689,-0.013572,-0.048205
26.223466,-0.009690,-0.015816,-0.036421
26.243516,0.006239,-0.040460,-0.030084
26.253556,-0.006566,-0.043602,-0.034407
26.273606,-0.015125,-0.052088,-0.040880
26.293656,-0.007695,-0.057401,-0.051567
26.303666,0.005086,-0.061724,-0.049416
26.323716,0.009357,-0.061763,-0.044063
26.343766,-0.010859,-0.044570,-0.052583
26.353806,-0.018307,-0.038123,-0.055778
26.373856,-0.034260,-0.019866,-0.066418
26.393906,-0.058720,0.003743,-0.073851
26.403916,-0.054431,0.015497,-0.078057
26.423966,-0.037349,0.023965,-0.073697
26.444047,-0.036222,0.048544,-0.077850
26.454056,-0.026600,0.059192,-0.077773
26.474106,-0.009528,0.064461,-0.074496
26.484147,-0.005286,0.053743,-0.069194
26.504197,0.013822,0.018373,-0.055422
26.524247,0.008388,-0.027596,-0.041768
26.534257,-0.006574,-0.042499,-0.041880
26.554307,-0.021536,-0.057402,-0.041991
26.574357,-0.014057,-0.055330,-0.033415
26.584397,-0.004453,-0.052168,-0.031237
26.604447,0.012585,-0.064026,-0.019496
26.624497,0.019976,-0.098300,-0.003614
26.644547,0.018845,-0.133639,0.017580
26.654557,0.013508,-0.140060,0.023944
26.674607,0.003982,-0.121925,0.034685
26.684647,0.006159,-0.105918,0.035835
26.704697,0.008372,-0.078174,0.039177
26.724747,-0.006473,-0.046052,0.031811
26.744797,-0.008561,-0.027870,0.027618
26.754807,-0.022384,-0.016078,0.027636
26.774857,-0.031891,0.020308,0.018168
26.784897,-0.032920,0.037429,0.011836
26.804947,-0.033936,0.057743,0.007657
26.824998,-0.003106,0.028804,0.008673
26.835038,0.011758,0.002007,0.019270
26.855088,0.033981,-0.071890,0.047823
26.875138,0.059473,-0.113708,0.065856
26.895188,0.086114,-0.110550,0.057399
26.905198,0.080806,-0.097672,0.047831
26.925248,0.020121,-0.053518,0.011553
26.945298,-0.013916,-0.008382,-0.024647
26.965348,-0.012814,0.014122,-0.041629
26.975388,-0.021328,0.018421,-0.041632
26.985398,-0.029843,0.023799,-0.043767
27.005448,-0.029844,0.018414,-0.034178
27.025498,-0.030883,0.014024,-0.008565
27.055588,-0.021172,0.039471,0.023629
27.055588,-0.021172,0.039471,0.023629
27.075638,0.012976,0.046765,0.038713
27.085648,0.033237,0.049898,0.039852
27.105698,0.031051,0.036073,0.029098
27.125758,0.012843,0.011640,0.013977
27.135799,0.013871,-0.000096,0.010720
27.155849,-0.004237,0.017166,-0.013817
27.175899,-0.037169,0.074026,-0.045686
27.195949,-0.049898,0.110498,-0.071185
27.205958,-0.038178,0.112626,-0.077552
27.226039,-0.042520,0.083806,-0.077701
27.236049,-0.037259,0.054919,-0.070345
27.256099,-0.022464,-0.008283,-0.039625
27.276149,-0.009718,-0.052353,0.011476
27.286189,0.004145,-0.063194,0.036032
27.306239,0.036242,-0.044297,0.083211
27.326289,0.052432,0.017484,0.105981
27.346339,0.101543,0.051529,0.099868
27.356349,0.118580,0.051524,0.089233
27.376399,0.086482,0.028321,0.049511
27.386439,0.057603,0.009348,0.016227
27.406489,-0.017183,-0.022154,-0.046085
27.426540,-0.078027,-0.029199,-0.095425
27.436549,-0.099341,-0.019442,-0.111461
27.456599,-0.096089,0.005150,-0.119881
27.476649,-0.050208,0.002683,-0.081310
27.486690,-0.022489,-0.007130,-0.057779
27.506740,0.041399,-0.054544,-0.011894
27.526790,0.066887,-0.112507,0.032767
27.536800,0.078557,-0.139304,0.045491
27.556850,0.067855,-0.157445,0.049649
27.576900,0.040188,-0.137024,0.041123
27.586940,0.026382,-0.117746,0.039040
27.606990,0.008381,-0.070663,0.031735
27.627040,0.001003,-0.037507,0.026531
27.647090,-0.009646,-0.035347,0.028648
27.657130,-0.011810,-0.050316,0.033912
27.677180,-0.001223,-0.087830,0.055128
27.687190,0.003005,-0.108200,0.068930
27.707240,0.007300,-0.111544,0.095632
27.737331,0.050134,-0.050922,0.119538
27.737331,0.050134,-0.050922,0.119538
27.757381,0.061968,-0.001760,0.103780
27.777431,0.040605,0.002769,0.064218
27.787440,0.019211,-0.011997,0.039520
27.807490,-0.024671,-0.058667,0.001791
27.827540,-0.038637,-0.091667,-0.011223
27.837581,-0.026908,-0.090642,-0.010117
27.857631,0.019024,-0.056647,-0.003420
27.877681,0.024510,-0.005455,0.007519
27.887691,0.021373,0.015909,0.008680
27.907741,0.005464,0.040488,0.016230
27.927791,0.020330,0.020149,0.016175
27.937831,0.012808,-0.002253,0.016048
27.957881,-0.015000,-0.043868,0.027525
27.967891,-0.023545,-0.050243,0.026403
27.987941,-0.000103,-0.049226,0.021131
28.008021,0.022295,-0.038579,0.012698
28.028071,0.037185,-0.035297,-0.013951
28.038081,0.026503,-0.034108,-0.032135
28.058131,-0.022591,-0.032659,-0.079265
28.068172,-0.053524,-0.032477,-0.096441
28.088222,-0.066321,-0.031337,-0.102880
28.118320,-0.000202,-0.037064,-0.066405
28.128361,-0.000202,-0.041482,-0.045023
28.138371,0.031790,-0.052306,-0.026865
28.158421,0.028626,-0.062094,0.012604
28.168461,0.000962,-0.045995,0.014740
28.188511,-0.028810,-0.013805,0.003060
28.208561,0.003104,-0.041725,0.013698
28.218571,-0.001183,-0.063181,0.037085
28.238621,-0.017149,-0.081507,0.083956
28.258671,0.025600,-0.059396,0.121566
28.268711,0.050194,-0.028490,0.118576
28.288761,0.036477,0.048673,0.070833
28.308811,0.011900,0.051111,0.023775
28.318821,-0.007361,0.036334,0.000152
28.338871,-0.043719,0.008827,-0.029989
28.358921,-0.020371,-0.020017,-0.043948
28.368961,-0.015088,-0.036049,-0.045077
28.389011,0.005112,-0.057498,-0.039782
28.409061,0.020028,-0.065073,-0.029094
28.419102,0.028559,-0.068345,-0.020540
28.439152,0.062602,-0.095189,-0.013096
28.459202,0.073186,-0.117610,-0.021718
28.469212,0.058241,-0.119641,-0.033520
28.489262,0.007116,-0.092651,-0.060239
28.509312,-0.036507,-0.058274,-0.073015
28.519352,-0.052430,-0.037957,-0.067622
28.539402,-0.058699,-0.003864,-0.046114
28.559452,-0.046888,0.011980,-0.017164
28.569462,-0.056438,0.020494,-0.004332
28.589512,-0.041473,0.024616,0.017093
28.609562,-0.002066,0.012726,0.020351
28.619602,-0.009537,0.009551,0.019247
28.639652,-0.036190,0.010741,0.011701
28.659702,-0.016004,-0.008512,0.004188
28.669712,-0.001128,-0.024574,0.003085
28.689762,0.012645,-0.043751,-0.016195
28.709812,0.025363,-0.060798,-0.033332
28.719852,0.060487,-0.076921,-0.035448
28.739902,0.099895,-0.088817,-0.031122
28.759953,0.059473,-0.047998,-0.053473
28.769993,0.028627,-0.014700,-0.072629
28.790043,-0.026708,0.041219,-0.116314
28.810093,-0.059764,0.051075,-0.145201
28.820103,-0.052358,0.031833,-0.146339
28.840153,-0.024733,-0.004612,-0.136821
28.870243,0.028521,-0.032678,-0.110102
28.870243,0.028521,-0.032678,-0.110102
28.890293,0.048775,-0.040295,-0.094059
28.910343,0.065795,-0.052098,-0.094067
28.920353,0.083877,-0.062811,-0.099409
28.940403,0.095514,-0.075502,-0.133620
28.960453,0.032585,-0.060068,-0.192473
28.970493,-0.007925,-0.045902,-0.224564
28.990543,-0.070757,-0.003846,-0.267267
29.010593,-0.059970,0.045264,-0.271278
29.020603,-0.064184,0.065589,-0.275466
29.040653,-0.013040,0.063312,-0.280677
29.060703,0.032682,0.005333,-0.246642
29.070744,0.039016,-0.026811,-0.228617
29.090794,0.021926,-0.048180,-0.214878
29.100803,0.010237,-0.039634,-0.207393
29.120847,0.005012,-0.009786,-0.192311
29.140897,0.015728,0.000768,-0.173003
29.160978,0.023213,0.007131,-0.168680
29.170988,0.024284,0.009263,-0.168667
29.191038,0.013606,0.006130,-0.176189
29.211088,-0.027929,0.028787,-0.196492
29.231138,-0.048171,0.036369,-0.205058
29.241178,-0.042849,0.032065,-0.201859
29.251188,-0.025819,0.020232,-0.195459
29.271238,0.059343,-0.026042,-0.179419
29.291288,0.149782,-0.070015,-0.201810
29.301328,0.146516,-0.075172,-0.238162
29.321378,0.069678,-0.061678,-0.329109
29.341428,-0.075394,-0.059739,-0.413890
29.361479,-0.197041,-0.093351,-0.449636
29.371488,-0.251483,-0.120910,-0.456326
29.391538,-0.236780,-0.195673,-0.465185
29.401579,-0.186704,-0.209785,-0.451226
29.421629,-0.103259,-0.120562,-0.405709
29.441679,-0.094210,0.056570,-0.380277
29.461729,-0.073590,0.169518,-0.340162
29.471739,-0.073488,0.185354,-0.301631
29.491789,-0.038313,0.135675,-0.208834
29.511839,0.010591,0.046499,-0.129005
29.521879,0.030796,0.014258,-0.100259
29.541929,0.041420,-0.010445,-0.077915
29.561979,0.052085,0.012119,-0.114098
29.572019,0.060594,0.019688,-0.139675
29.592069,0.049797,-0.013231,-0.171907
29.602079,0.013485,-0.040885,-0.171070
29.622129,-0.012191,-0.087892,-0.149999
29.642179,0.018808,-0.077505,-0.109272
29.652219,0.011482,-0.041282,-0.085621
29.672270,0.022402,0.033256,-0.046782
29.702329,0.092860,0.053131,-0.006969
29.702329,0.092860,0.053131,-0.006969
29.722379,0.088539,0.038244,-0.017734
29.742429,0.079871,-0.001135,-0.040377
29.762479,0.042477,-0.014730,-0.075795
29.772520,0.016884,-0.007060,-0.099331
29.792570,-0.003362,0.019921,-0.145192
29.802580,0.008370,0.030628,-0.158996
29.822630,0.030782,0.053083,-0.180192
29.842680,0.035014,0.053165,-0.200476
29.852720,0.044580,0.044601,-0.202626
29.872770,0.027511,0.038244,-0.201635
29.892820,-0.021437,0.038155,-0.149429
29.902830,-0.038412,0.047660,-0.115248
29.922910,-0.033899,0.095328,-0.035962
29.942960,0.015454,0.170618,0.043578
29.952970,0.049722,0.204463,0.089766
29.973020,0.080939,0.266940,0.180946
29.993070,0.076898,0.296411,0.275077
30.003111,0.069532,0.306907,0.318903
30.023161,0.090947,0.306524,0.385190
30.043211,0.157103,0.318993,0.413205
30.053220,0.199760,0.327393,0.414431
30.073271,0.282831,0.302540,0.418816
30.093321,0.252851,0.265371,0.395057
30.103361,0.170700,0.248672,0.369114
30.123433,0.026594,0.217532,0.277770
30.143483,-0.129220,0.203612,0.166179
30.153493,-0.165535,0.188895,0.141440
30.173543,-0.141182,0.141928,0.119921
30.193593,-0.090158,0.102330,0.102783
30.203633,-0.096566,0.098084,0.101677
30.223683,-0.096579,0.091661,0.104852
30.243733,-0.062569,0.057382,0.103715
30.253743,-0.041357,0.018862,0.104660
30.273793,-0.122410,0.007444,0.090495
30.303883,-0.715654,1.075317,-0.162464
30.323933,-0.076744,0.891915,-0.208567
30.343983,0.460573,0.121913,-0.124199
30.354024,0.561865,-0.248965,-0.131015
30.374074,0.437451,-0.855646,-0.254937
30.384084,0.315190,-1.094138,-0.325837
30.404134,-0.022278,-1.258947,-0.473895
30.424184,-0.313807,-1.016131,-0.582509
30.444234,-0.420032,-0.480603,-0.611248
30.454274,-0.365828,-0.166972,-0.574363
30.474324,-0.105205,0.346224,-0.422734
30.484334,0.062614,0.474475,-0.331933
30.504384,0.218463,0.462430,-0.149963
30.524434,0.158235,0.254287,-0.131886
30.534474,0.098112,0.119066,-0.177557
30.554524,-0.029548,-0.135346,-0.265639
30.574574,-0.114157,-0.236106,-0.355011
30.594624,-0.095832,-0.128021,-0.414269
30.604634,-0.073216,-0.036196,-0.425523
30.624684,0.005983,0.076687,-0.411951
30.634724,0.033711,0.073313,-0.394799
30.654774,0.017545,-0.026251,-0.332290
30.674824,-0.007311,-0.175894,-0.288202
30.684834,0.004254,-0.238985,-0.278854
30.704915,0.046699,-0.325783,-0.246033
30.724965,0.076510,-0.364563,-0.195928
30.734975,0.093602,-0.365818,-0.168113
30.755025,0.115115,-0.322345,-0.116574
30.775075,0.137733,-0.240223,-0.108645
30.785115,0.137852,-0.184584,-0.130814
30.805165,0.119828,-0.110499,-0.202084
30.835225,0.041711,-0.155570,-0.328562
30.835225,0.041711,-0.155570,-0.328562
30.855275,-0.007635,-0.245962,-0.376128
30.875325,-0.031292,-0.317397,-0.385077
30.885365,-0.035533,-0.322839,-0.360545
30.905415,-0.004348,-0.267802,-0.276878
30.925465,0.091010,-0.135049,-0.185188
30.935475,0.138190,-0.046695,-0.156866
30.955525,0.233517,0.112007,-0.132351
30.975575,0.256102,0.207162,-0.170295
30.985616,0.240070,0.214897,-0.214099
31.005666,0.197083,0.147219,-0.326700
31.025716,0.129470,0.026118,-0.417190
31.045766,0.041700,-0.071513,-0.488397
31.055775,0.009607,-0.096888,-0.520652
31.075856,-0.008553,-0.081615,-0.576177
31.085866,0.005311,-0.067686,-0.595300
31.105916,0.048938,-0.082682,-0.615547
31.136017,-0.027949,-0.144439,-0.602165
31.136017,-0.027949,-0.144439,-0.602165
31.156067,-0.095052,-0.144352,-0.574576
31.176117,-0.117237,-0.108279,-0.509306
31.186127,-0.106441,-0.078588,-0.471748
31.206177,-0.034787,-0.032201,-0.393351
31.226227,0.041003,-0.023129,-0.331142
31.246277,0.044247,-0.014667,-0.316138
31.256317,0.027215,-0.003907,-0.321476
31.276367,0.017635,0.012245,-0.342790
31.286377,0.025089,0.019782,-0.360893
31.306427,0.053785,0.022098,-0.418486
31.326477,0.041837,-0.026706,-0.478570
31.336518,0.010778,-0.068138,-0.503421
31.356568,-0.058753,-0.146823,-0.528554
31.376618,-0.103559,-0.173472,-0.508508
31.386627,-0.107740,-0.155405,-0.487070
31.406678,-0.074381,-0.073580,-0.423566
31.446778,0.041185,0.042005,-0.328697
31.456818,0.060330,0.021601,-0.318059
31.476868,0.070771,-0.056382,-0.320535
31.486908,0.064256,-0.092605,-0.334611
31.506958,0.031086,-0.122248,-0.366890
31.527008,0.043872,-0.094270,-0.420133
31.537018,0.082247,-0.069640,-0.460502
31.557068,0.124885,-0.024556,-0.538151
31.577118,0.051326,0.008059,-0.609770
31.587158,0.012910,0.005102,-0.635527
31.607209,-0.018085,-0.021451,-0.645352
31.627259,-0.062733,0.016032,-0.636753
31.647309,-0.069962,0.096110,-0.627848
31.657318,-0.035788,0.116249,-0.619113
31.677368,0.030361,0.128744,-0.596438
31.687409,0.031436,0.123325,-0.580438
31.707459,0.042049,0.090037,-0.549588
31.727509,0.078173,0.032110,-0.519852
31.737519,0.085585,0.012848,-0.516718
31.757569,0.114168,-0.037261,-0.554263
31.777619,0.081916,-0.105216,-0.615562
31.807709,-0.002520,-0.191182,-0.650471
31.807709,-0.033479,-0.191182,-0.650471
31.827759,-0.050508,-0.152720,-0.624769
31.837799,-0.102414,-0.091858,-0.604258
31.857849,-0.095576,0.040291,-0.550203
31.877899,-0.099512,0.122212,-0.481461
31.887909,-0.095191,0.122016,-0.442994
31.907959,-0.051540,0.047696,-0.339609
31.918000,-0.038810,-0.002786,-0.287470
31.938050,-0.037837,-0.073591,-0.220505
31.958100,0.011100,-0.126251,-0.184299
31.968109,0.021737,-0.142376,-0.169391
31.988159,-0.005920,-0.128453,-0.158720
32.008210,-0.015450,-0.107073,-0.156508
32.038300,-0.105717,0.028994,-0.187092
32.038300,-0.105717,0.028994,-0.187092
32.058350,-0.183245,0.173797,-0.266738
32.068360,-0.170410,0.208081,-0.298586
32.088410,-0.134298,0.180354,-0.331732
32.108460,-0.161175,0.103615,-0.346056
32.118500,-0.155938,0.070497,-0.347267
32.138576,-0.098430,0.051062,-0.341859
32.158626,-0.036487,0.114016,-0.372368
32.178676,0.043431,0.155820,-0.459543
32.188686,0.039060,0.145403,-0.511947
32.208736,-0.074304,0.047900,-0.592837
32.218776,-0.131024,-0.028736,-0.608312
32.238826,-0.169727,-0.164360,-0.583423
32.258876,-0.110034,-0.199051,-0.515056
32.268917,-0.050229,-0.175928,-0.477394
32.288967,-0.009282,-0.043900,-0.421109
32.309017,-0.004635,0.098141,-0.424697
32.329067,-0.066267,0.169929,-0.432006
32.339077,-0.121661,0.178642,-0.429981
32.359127,-0.121793,0.123044,-0.416358
32.369167,-0.072882,0.074777,-0.405769
32.389217,-0.015476,0.010424,-0.386687
32.409267,-0.004806,0.026509,-0.407945
32.419277,-0.001585,0.046891,-0.429204
32.439327,-0.044149,0.096366,-0.473953
32.459377,-0.100676,0.102061,-0.510401
32.499477,-0.102074,-0.035845,-0.480080
32.509517,-0.103187,-0.071240,-0.447135
32.519527,-0.101044,-0.083130,-0.418344
32.539577,-0.006168,-0.095353,-0.382889
32.559627,0.019566,-0.062532,-0.339934
32.569667,-0.019723,-0.017622,-0.324875
32.589717,-0.025976,0.034732,-0.325713
32.609768,0.003830,0.009977,-0.305451
32.629818,-0.087831,0.007050,-0.301446
32.639858,-0.129380,0.025441,-0.322838
32.659908,-0.159162,0.073823,-0.370761
32.669918,-0.168742,0.088896,-0.389944
32.689968,-0.212402,0.111540,-0.405981
32.710018,-0.213454,0.109347,-0.393175
32.720058,-0.196400,0.095282,-0.366489
32.740108,-0.136727,0.054193,-0.300290
32.760158,-0.079179,0.020628,-0.242606
32.780208,-0.039717,0.007487,-0.200898
32.790218,-0.036483,0.013823,-0.188041
32.810268,-0.023649,0.028723,-0.185799
32.820308,0.011469,0.014771,-0.195381
32.840358,0.037987,-0.019383,-0.217902
32.870418,-0.053753,0.001641,-0.309923
32.870418,-0.053753,0.001641,-0.309923
32.890468,-0.112403,0.028858,-0.379390
32.910518,-0.184860,0.072129,-0.446683
32.930568,-0.206176,0.085125,-0.470181
32.940609,-0.198725,0.075434,-0.458456
32.960659,-0.159264,0.055835,-0.406097
32.970668,-0.125123,0.052379,-0.376109
32.990749,-0.082311,0.086141,-0.318148
33.020809,-0.035226,0.123088,-0.259091
33.020809,-0.035226,0.123088,-0.259091
33.040859,-0.033097,0.117706,-0.251633
33.060909,-0.058758,0.098657,-0.271022
33.080959,-0.096221,0.062661,-0.311888
33.090999,-0.122940,0.044669,-0.328070
33.101009,-0.157083,0.036282,-0.337818
33.121059,-0.172012,0.033121,-0.336806
33.141117,-0.153778,0.059629,-0.308857
33.171207,-0.141848,0.127878,-0.295682
33.171207,-0.141848,0.127878,-0.295682
33.191257,-0.153511,0.126645,-0.252992
33.211307,-0.173689,0.127561,-0.207110
33.231358,-0.115047,0.118681,-0.176012
33.241367,-0.093761,0.100391,-0.162153
33.261417,-0.124722,0.076962,-0.154872
33.271458,-0.121573,0.059869,-0.156012
33.291508,-0.109890,0.042724,-0.151788
33.321567,-0.162065,0.092292,-0.209381
33.321567,-0.162065,0.092292,-0.209381
33.341618,-0.211040,0.114908,-0.215819
33.351658,-0.211004,0.123411,-0.207233
33.371708,-0.148044,0.143426,-0.192009
33.391758,-0.076618,0.138832,-0.172606
33.411808,-0.066095,0.083209,-0.161089
33.421848,-0.077921,0.045870,-0.161299
33.441898,-0.079214,-0.018041,-0.195787
33.461948,-0.073037,-0.069079,-0.247286
33.471958,-0.075257,-0.089256,-0.269820
33.492008,-0.097738,-0.116879,-0.284968
33.502048,-0.105210,-0.122204,-0.282877
33.522099,-0.081723,-0.124558,-0.252913
33.552158,-0.058072,-0.088654,-0.183244
33.552158,-0.058072,-0.088654,-0.183244
33.572208,0.004895,-0.084819,-0.133914
33.592258,0.058179,-0.106518,-0.098619
33.622349,0.082532,-0.150256,-0.125464
33.622349,0.082532,-0.150256,-0.125464
33.642399,0.055648,-0.216199,-0.164306
33.652409,0.027818,-0.255586,-0.172046
33.672459,-0.019221,-0.301299,-0.184143
33.692509,-0.067126,-0.274390,-0.195898
33.702549,-0.086189,-0.223006,-0.208527
33.722599,-0.112475,-0.074326,-0.239942
33.742649,-0.074931,0.031435,-0.272453
33.752689,-0.073817,0.050669,-0.275563
33.772739,-0.067495,0.013175,-0.255427
33.792789,-0.082536,-0.056415,-0.208797
33.802799,-0.071894,-0.076867,-0.182159
33.822849,-0.016394,-0.079451,-0.125402
33.842899,0.052008,-0.022105,-0.103578
33.852940,0.098955,-0.001957,-0.105489
33.872990,0.114916,-0.000850,-0.124667
33.893040,0.062464,-0.048433,-0.189130
33.903049,0.039924,-0.083405,-0.231018
33.923099,-0.048680,-0.106364,-0.283714
33.943150,-0.087057,-0.091132,-0.316863
33.953190,-0.062525,-0.083731,-0.317828
33.973240,-0.003825,-0.071253,-0.286629
33.993290,0.028263,-0.049097,-0.251184
34.003300,0.039000,-0.029990,-0.233973
34.023350,0.068936,-0.012074,-0.203895
34.043400,0.060414,-0.009905,-0.204977
34.053440,0.031609,-0.014028,-0.216826
34.073490,0.006942,-0.054398,-0.244859
34.093540,0.056857,-0.099241,-0.281252
34.103550,0.086642,-0.112083,-0.296186
34.123660,0.119632,-0.122803,-0.310032
34.153720,0.142077,-0.100455,-0.308796
34.153720,0.142077,-0.100455,-0.308796
34.173770,0.117612,-0.088678,-0.298126
34.193820,0.084640,-0.074784,-0.277855
34.213870,0.079428,-0.048205,-0.248902
34.223911,0.072054,-0.023679,-0.235988
34.243961,0.069043,0.033908,-0.216496
34.253971,0.073386,0.055187,-0.202497
34.274021,0.089526,0.089121,-0.162768
34.294071,0.145096,0.111090,-0.103758
34.304111,0.157925,0.106614,-0.069561
34.324161,0.146187,0.084079,-0.038722
34.334171,0.135472,0.061672,-0.035653
34.354221,0.094790,0.007441,-0.057386
34.384311,0.054002,-0.041067,-0.160277
34.384311,0.054002,-0.041067,-0.160277
34.404361,-0.017519,-0.050173,-0.218201
34.424411,-0.070908,-0.071232,-0.245154
34.444461,-0.100771,-0.088303,-0.228226
34.454471,-0.110312,-0.083048,-0.203658
34.474521,-0.113319,-0.048095,-0.140477
34.494602,-0.053376,0.012295,-0.079137
34.514652,-0.002027,0.053535,-0.027526
34.524661,0.006542,0.061990,-0.014644
34.534702,0.003366,0.066242,-0.008223
34.554752,-0.038171,0.079212,-0.012549
34.574802,-0.061657,0.074024,-0.028662
34.594852,-0.067069,0.047374,-0.035212
34.604862,-0.049005,0.022712,-0.026733
34.624912,0.009545,-0.014962,-0.004317
34.634952,0.044723,-0.017252,0.004315
34.655002,0.093755,-0.013120,0.000197
34.675052,0.097959,-0.024795,-0.018006
34.685062,0.082985,-0.036428,-0.031989
34.705112,0.031655,-0.080963,-0.064388
34.725162,-0.038833,-0.111512,-0.105320
34.745212,-0.059067,-0.094263,-0.125590
34.755252,-0.055816,-0.076129,-0.123359
34.775302,-0.056708,-0.016352,-0.116669
34.785312,-0.059797,0.016709,-0.104771
34.805362,-0.068157,0.060375,-0.073610
34.825412,-0.085132,0.068801,-0.037297
34.835452,-0.091515,0.064475,-0.021312
34.855503,-0.095736,0.057894,0.018169
34.875553,-0.060524,0.054419,0.051364
34.905643,0.003433,0.060644,0.046230
34.905643,0.003433,0.060644,0.046230
34.925693,0.010717,0.031016,-0.016915
34.935703,-0.011794,0.004568,-0.054490
34.955753,-0.103709,-0.049260,-0.126569
34.975803,-0.192273,-0.065882,-0.164280
34.985843,-0.207180,-0.058338,-0.168558
35.005893,-0.180362,-0.000802,-0.158598
35.025943,-0.139659,0.056593,-0.128304
35.035953,-0.107648,0.060680,-0.111105
35.056003,-0.101180,0.070124,-0.080064
35.076053,-0.109699,0.066897,-0.069421
35.086093,-0.123596,0.053069,-0.071661
35.106143,-0.164177,0.024372,-0.072977
35.136214,-0.132423,-0.055827,-0.073269
35.136214,-0.132423,-0.055827,-0.073269
35.156264,-0.124011,-0.108274,-0.054266
35.176314,-0.139026,-0.160711,-0.021441
35.196364,-0.157126,-0.180102,0.026487
35.206405,-0.153831,-0.161032,0.056497
35.226455,-0.098168,-0.103807,0.112468
35.236495,-0.057545,-0.072012,0.136232
35.256545,0.005539,-0.010378,0.158062
35.276595,0.005583,0.005641,0.158138
35.286605,0.005537,-0.008216,0.152731
35.306655,-0.012757,-0.061463,0.133201
35.326705,-0.026743,-0.085778,0.090318
35.336745,-0.041678,-0.074913,0.061487
35.356795,-0.038399,-0.008399,-0.004419
35.376845,-0.007413,0.054812,-0.068127
35.386855,0.009630,0.066636,-0.095797
35.406905,0.019127,0.052904,-0.134292
35.436995,0.009292,0.000920,-0.200794
35.436995,0.009292,0.000920,-0.200794
35.457046,-0.062162,0.016376,-0.258602
35.477096,-0.106845,0.064740,-0.292680
35.487105,-0.105701,0.092498,-0.291477
35.507155,-0.041592,0.138100,-0.267583
35.527205,0.017137,0.151565,-0.219288
35.537246,0.020380,0.148179,-0.182975
35.557296,-0.010494,0.130934,-0.128663
35.577346,-0.063732,0.135252,-0.102085
35.587356,-0.070112,0.139535,-0.099946
35.607406,-0.080759,0.147075,-0.106349
35.627486,-0.108457,0.139583,-0.084028
35.637496,-0.122319,0.129956,-0.071294
35.657546,-0.130949,0.078607,-0.046991
35.677596,-0.106644,-0.018841,-0.007861
35.687636,-0.086450,-0.056431,0.022995
35.707686,-0.039577,-0.102833,0.092339
35.727736,0.010508,-0.137443,0.149997
35.737746,0.033955,-0.148289,0.169238
35.757796,0.041400,-0.150419,0.162840
35.767837,0.041366,-0.148157,0.136145
35.787887,0.034822,-0.169206,0.075139
35.817946,-0.008091,-0.253277,0.041508
35.817946,-0.008091,-0.253277,0.041508
35.837996,-0.030505,-0.283263,0.074419
35.858046,0.000594,-0.240879,0.123843
35.868087,0.026333,-0.192997,0.143369
35.888137,0.099124,-0.092978,0.171817
35.908187,0.158916,-0.052576,0.168968
35.928237,0.154549,-0.074857,0.141077
35.948287,0.112783,-0.110713,0.073495
35.958297,0.092451,-0.116852,0.030681
35.968337,0.076410,-0.116628,-0.005682
35.988387,0.054960,-0.129060,-0.072029
36.008437,0.030323,-0.146903,-0.121319
36.028487,-0.041063,-0.126274,-0.143851
36.038527,-0.070846,-0.100511,-0.151289
36.058577,-0.082408,-0.047127,-0.140387
36.068587,-0.062047,-0.010919,-0.132682
36.088637,-0.049051,0.046556,-0.100327
36.108687,-0.023411,0.045202,-0.057534
36.128761,-0.010682,-0.012816,0.007387
36.138802,-0.008572,-0.039683,0.041449
36.158852,-0.006421,-0.066682,0.103284
36.188912,0.001275,-0.012515,0.161245
36.188912,0.001275,-0.012515,0.161245
36.208962,0.044068,0.043927,0.165903
36.219002,0.038794,0.068547,0.157459
36.239052,0.017520,0.104030,0.121249
36.259102,0.007895,0.107396,0.093464
36.269112,0.013192,0.103173,0.079572
36.289162,0.009907,0.093764,0.038927
36.309212,0.021459,0.054415,-0.003956
36.329262,0.011626,-0.006193,-0.053408
36.339302,-0.003397,-0.030595,-0.077065
36.359352,0.000682,-0.080655,-0.108269
36.369393,0.012337,-0.105250,-0.109422
36.389443,0.020837,-0.121353,-0.097724
36.419502,0.059270,-0.105524,-0.083656
36.419502,0.059270,-0.105524,-0.083656
36.439552,0.072106,-0.099249,-0.064363
36.459602,0.080655,-0.101504,-0.045122
36.469643,0.079597,-0.104755,-0.034458
36.489693,0.045559,-0.084394,-0.025910
36.509743,-0.019302,-0.027572,-0.027957
36.519753,-0.037332,0.003446,-0.025724
36.539803,-0.090434,0.062269,-0.007433
36.569893,-0.091282,0.099286,0.069651
36.569893,-0.091282,0.099286,0.069651
36.589943,-0.009253,0.043123,0.146524
36.609993,0.066279,-0.037470,0.199762
36.630043,0.078946,-0.080214,0.196390
36.640053,0.046948,-0.076800,0.173885
36.660103,-0.022312,-0.030310,0.101275
36.670143,-0.051046,0.006275,0.062913
36.690193,-0.092503,0.086854,-0.010527
36.720253,-0.078581,0.135073,-0.054057
36.720253,-0.078581,0.135073,-0.054057
36.740334,-0.116918,0.141560,-0.044518
36.760384,-0.074337,0.102804,-0.008265
36.770393,-0.042404,0.073745,0.017323
36.790444,-0.003030,0.033951,0.049290
36.810494,0.066141,-0.010104,0.058887
36.820534,0.098031,-0.040105,0.057765
36.840584,0.102108,-0.093389,0.030819
36.860634,0.072081,-0.135796,-0.014330
36.870644,0.057104,-0.148497,-0.028318
36.890694,0.002717,-0.143912,-0.057289
36.910744,-0.005762,-0.116028,-0.076408
36.940834,-0.015117,-0.027338,-0.080287
36.940834,-0.015117,-0.027338,-0.080287
36.960884,0.006260,-0.004981,-0.080122
36.970894,0.010521,-0.009297,-0.073722
36.990944,-0.048092,-0.017741,-0.054696
37.010994,-0.034271,-0.055381,-0.008902
37.021034,-0.016150,-0.071605,0.022049
37.041084,0.036129,-0.080566,0.074494
37.061134,0.092634,-0.086191,0.095988
37.071144,0.088388,-0.078691,0.093875
37.091194,0.044663,-0.076307,0.071333
37.101235,0.027585,-0.078327,0.058457
37.121285,-0.041665,-0.053413,0.031679
37.141335,-0.060714,0.008700,0.008419
37.161385,-0.041364,0.074900,-0.001896
37.171425,-0.024250,0.099427,-0.006006
37.191475,0.001326,0.098276,-0.005941
37.211525,0.015061,0.040442,0.019461
37.221535,0.014984,0.004061,0.034243
37.241585,0.020246,-0.039908,0.069301
37.261635,0.049074,-0.022930,0.072666
37.271675,0.058701,-0.002605,0.058902
37.291725,0.073588,0.013614,0.006677
37.311775,0.041419,-0.029830,-0.043823
37.321785,0.005069,-0.057362,-0.068623
37.341835,-0.046234,-0.092285,-0.100976
37.351875,-0.049445,-0.097620,-0.099942
37.371925,-0.026998,-0.081739,-0.085918
37.391976,0.014644,-0.067034,-0.062233
37.401985,0.039174,-0.070399,-0.045090
37.422035,0.024312,-0.069460,-0.007739
37.442085,0.015889,-0.043908,0.014791
37.462135,0.051088,-0.050571,0.044767
37.472176,0.051100,-0.053841,0.058638
37.492226,0.054289,-0.058133,0.060763
37.502266,0.053228,-0.053838,0.056508
37.522316,0.014945,-0.014129,0.041635
37.552376,-0.027599,0.040671,0.000116
37.552376,-0.027599,0.040671,0.000116
37.572426,-0.019157,0.005361,0.008518
37.592476,-0.016056,-0.036354,0.020080
37.612526,-0.012841,-0.042883,0.043558
37.622566,-0.006378,-0.022654,0.052218
37.642616,0.010882,0.049885,0.057950
37.652626,0.012047,0.087269,0.055993
37.672676,0.036635,0.126809,0.033816
37.692726,0.009931,0.119541,0.008070
37.702767,-0.013590,0.101539,-0.008103
37.722817,0.002140,0.019357,-0.029812
37.742867,-0.007660,-0.057512,-0.028067
37.762917,-0.002403,-0.083155,-0.029242
37.772926,0.016781,-0.087524,-0.021732
37.792976,0.055194,-0.080249,-0.005568
37.803017,0.073319,-0.080328,-0.001246
37.823067,0.043464,-0.080191,-0.009873
37.843117,-0.019418,-0.073523,-0.021766
37.853127,-0.054566,-0.061637,-0.027148
37.873207,-0.059825,-0.040296,-0.019584
37.893257,-0.022456,-0.035240,0.014726
37.913307,-0.010694,-0.040784,0.049984
37.923317,-0.013896,-0.050456,0.064884
37.943367,-0.001086,-0.059178,0.093720
37.953407,0.000004,-0.056028,0.104420
37.973457,0.016067,-0.027236,0.102464
37.993507,-0.002993,0.032757,0.075990
38.003517,-0.021047,0.073544,0.045155
38.023567,-0.043415,0.115584,-0.022006
38.043617,-0.070193,0.081624,-0.048946
38.053658,-0.087331,0.050709,-0.049139
38.073708,-0.065092,-0.013545,-0.026949
38.093758,-0.041631,-0.034130,0.018951
38.103768,-0.030931,-0.023526,0.027577
38.123818,0.012881,0.019060,0.025763
38.143895,0.023534,0.019040,0.022588
38.153935,0.020272,-0.003366,0.020336
38.173985,0.029690,-0.069634,0.025390
38.194035,0.032757,-0.127398,0.043285
38.204045,0.030611,-0.135965,0.049647
38.224095,0.004004,-0.120917,0.047509
38.234135,0.020013,-0.101650,0.027348
38.254185,-0.032110,-0.057635,0.014594
38.274235,-0.070363,-0.013710,0.011491
38.294285,-0.045786,-0.012914,0.052155
38.304326,-0.014888,-0.031296,0.078859
38.324376,0.019196,-0.066886,0.128990
38.334385,0.020258,-0.076572,0.143903
38.354435,0.026678,-0.068054,0.145029
38.374485,0.008664,-0.015545,0.119590
38.394535,-0.050875,0.074673,0.052555
38.404576,-0.060433,0.105836,0.018493
38.424626,-0.064742,0.116767,-0.031673
38.434636,-0.070140,0.098690,-0.044592
38.454686,-0.061822,0.030381,-0.058779
38.474736,-0.036379,-0.027441,-0.044027
38.494786,0.012611,-0.045795,-0.035433
38.514836,0.063759,-0.049160,-0.036376
38.524876,0.092497,-0.060981,-0.040625
38.534886,0.097775,-0.074841,-0.049222
38.554936,0.048648,-0.094830,-0.079362
38.574986,-0.008991,-0.110531,-0.107369
38.585026,-0.032452,-0.112565,-0.112785
38.605076,-0.062231,-0.098666,-0.095710
38.625126,-0.017370,-0.087272,-0.051735
38.635167,0.012547,-0.077909,-0.019562
38.655217,-0.000074,-0.045010,0.032901
38.685276,0.000045,-0.034614,0.092771
38.685276,0.000045,-0.034614,0.092771
38.705326,-0.007342,-0.026203,0.125905
38.725377,0.028950,-0.002796,0.119707
38.745427,0.043842,-0.001675,0.098389
38.755467,0.022484,-0.007938,0.082277
38.775517,-0.038362,-0.020363,0.041458
38.785527,-0.046942,-0.030939,0.025361
38.805577,-0.071457,-0.024391,0.012506
38.825627,-0.061765,0.014043,0.008441
38.835667,-0.038266,0.032117,0.009660
38.855717,-0.008321,0.072627,0.004593
38.875767,-0.029587,0.103777,-0.018819
38.885777,-0.059424,0.114629,-0.034873
38.905827,-0.082935,0.106288,-0.061683
38.925877,-0.053257,0.039924,-0.050164
38.935917,-0.036302,-0.001831,-0.039633
38.955967,0.023198,-0.082231,-0.016348
38.976017,0.069971,-0.149860,0.025122
38.996067,0.102966,-0.176756,0.044313
39.006108,0.111497,-0.176799,0.047541
39.026158,0.096592,-0.163875,0.034743
39.046208,0.000747,-0.125027,0.015434
39.056218,-0.036519,-0.105632,0.004740
39.076268,-0.009815,-0.085438,0.007046
39.086308,0.004094,-0.072729,0.019963
39.106358,-0.014923,-0.018258,0.031919
39.146474,-0.031831,0.041662,0.019337
39.156484,-0.056342,0.044966,0.015012
39.176534,-0.031925,0.009644,0.014912
39.186574,-0.003204,-0.019359,0.030878
39.206624,0.027627,-0.066610,0.064922
39.226674,0.043570,-0.089144,0.076610
39.236684,0.067009,-0.090273,0.073465
39.256734,0.025563,-0.039890,0.061838
39.276784,-0.008459,0.024590,0.000093
39.286824,-0.016984,0.037539,-0.022302
39.306874,-0.066061,0.030319,-0.042768
39.326925,-0.051272,-0.017786,-0.042954
39.346975,0.022183,-0.072692,-0.000283
39.357015,0.044573,-0.080331,0.018971
39.377065,0.106388,-0.085917,0.028729
39.387075,0.115995,-0.078452,0.024518
39.407125,0.060596,-0.048183,-0.015015
39.437215,-0.030059,-0.028302,-0.092083
39.437215,-0.030059,-0.028302,-0.092083
39.457265,-0.072752,-0.050590,-0.092307
39.477315,-0.056772,-0.074318,-0.053919
39.487325,-0.015200,-0.087400,-0.026093
39.507375,-0.007600,-0.069553,0.033833
39.527425,-0.029777,-0.013037,0.067153
39.537465,-0.030769,0.011509,0.071540
39.557515,-0.064752,0.047858,0.086573
39.587575,-0.073119,0.100164,0.097479
39.587575,-0.073119,0.100164,0.097479
39.607625,-0.037952,0.098987,0.096503
39.627675,-0.010379,0.059474,0.077164
39.637716,-0.016862,0.033920,0.065275
39.657766,-0.048977,-0.001076,0.035111
39.677816,-0.045827,-0.008476,0.016925
39.687825,-0.041557,-0.003124,0.011621
39.707875,0.012730,-0.018166,-0.006460
39.737966,-0.001297,-0.077900,-0.012122
39.737966,-0.001297,-0.077900,-0.012122
39.758016,0.022061,-0.115394,-0.003690
39.778066,0.054041,-0.117674,0.004934
39.798116,0.023241,-0.080211,0.008230
39.808156,0.017970,-0.053450,-0.001271
39.818166,-0.007530,-0.015914,-0.017188
39.838216,-0.083043,0.061390,-0.052282
39.858266,-0.114990,0.080797,-0.069369
39.888356,-0.038450,-0.039475,0.017867
39.888356,-0.038450,-0.039475,0.017867
39.908406,0.012654,-0.091175,0.075447
39.918416,0.042501,-0.102057,0.097910
39.938466,0.024499,-0.073286,0.123634
39.958516,-0.001977,-0.004791,0.111066
39.978566,-0.038071,0.063816,0.081381
39.988607,-0.040180,0.079907,0.067564
40.008657,-0.032790,0.075799,0.028041
40.018666,-0.045644,0.064194,0.006587
40.038717,-0.102252,0.043216,-0.035329
40.058767,-0.088496,0.016554,-0.052509
40.068807,-0.049104,-0.003905,-0.043951
40.088857,0.009458,-0.044849,-0.007664
40.108907,0.050977,-0.073919,0.013678
40.118947,0.083988,-0.085784,0.015850
40.139023,0.121209,-0.105036,-0.003367
40.159073,0.089114,-0.123938,-0.049478
40.189133,0.027149,-0.128651,-0.139401
40.189133,0.027149,-0.128651,-0.139401
40.209183,-0.020806,-0.115589,-0.158700
40.219223,-0.052726,-0.099497,-0.152303
40.239274,-0.014314,-0.113763,-0.097785
40.259324,0.012401,-0.134540,-0.013421
40.269333,0.017775,-0.141162,0.028223
40.289383,0.031747,-0.127572,0.080668
40.309433,0.020181,-0.081714,0.102218
40.329483,-0.012671,-0.014337,0.104582
40.339524,-0.056301,0.015752,0.094990
40.359574,-0.050921,0.060815,0.047148
40.369584,-0.061569,0.071590,0.034351
40.389634,-0.068011,0.062065,0.020402
40.409684,-0.060604,0.041745,0.021394
40.419724,-0.047832,0.034218,0.023530
40.439774,-0.013747,0.026632,0.023589
40.459824,0.000039,0.002030,0.022442
40.479874,0.045722,-0.056901,0.031904
40.489914,0.060586,-0.079391,0.035043
40.509964,0.055171,-0.102797,0.019962
40.519974,0.045550,-0.105909,0.007102
40.540024,-0.023733,-0.090581,-0.025063
40.560074,-0.043988,-0.084037,-0.040043
40.570115,-0.045034,-0.087329,-0.020834
40.590165,-0.023641,-0.095182,0.044349
40.610215,0.053224,-0.102299,0.141736
40.630265,0.087575,-0.066561,0.239207
40.640274,0.107949,-0.037934,0.269309
40.660325,0.191306,0.033256,0.289104
40.670365,0.175481,0.095273,0.284012
40.690415,0.112805,0.202543,0.226663
40.720475,0.089263,0.219078,0.133742
40.720475,0.089263,0.219078,0.133742
40.740525,0.084818,0.164729,0.112108
40.760575,0.038717,0.091414,0.064632
40.780625,0.039460,-0.007750,0.031051
40.790665,0.006343,-0.036482,0.031891
40.810715,-0.024593,-0.045988,0.030693
40.820755,0.001064,-0.010769,0.018112
40.840805,0.081359,0.133253,-0.004486
40.870865,0.146606,0.215247,0.001423
40.870865,0.146606,0.215247,0.001423
40.890915,0.134647,0.127700,0.004181
40.910965,0.042735,0.020000,0.032259
40.921006,0.017048,-0.025893,0.043721
40.941056,0.024336,-0.090003,0.045575
40.961106,0.022263,-0.063252,0.036082
40.971116,-0.024520,-0.019290,0.030819
40.991166,-0.117064,0.074159,-0.019201
41.011216,-0.145798,0.126900,-0.086328
41.021256,-0.161822,0.121683,-0.101352
41.041306,-0.159900,0.027546,-0.069746
41.061356,-0.114408,-0.128808,-0.009471
41.071366,-0.078273,-0.192156,0.037330
41.091416,0.048674,-0.213405,0.152948
41.111466,0.185575,-0.072098,0.213815
41.121506,0.240224,0.028055,0.226190
41.141572,0.272752,0.219014,0.247479
41.161622,0.206794,0.271628,0.232591
41.171632,0.143794,0.239891,0.211970
41.191713,0.036715,0.087776,0.157544
41.211763,-0.031022,-0.088947,0.086019
41.221772,-0.049360,-0.150672,0.052561
41.241822,-0.052697,-0.178225,0.009693
41.251863,-0.047335,-0.156803,-0.007282
41.271913,-0.003518,-0.105618,-0.020805
41.291963,0.027431,-0.082148,-0.036632
41.322023,-0.020550,-0.065771,-0.079416
41.322023,-0.020550,-0.065771,-0.079416
41.342073,-0.022668,-0.048571,-0.101773
41.352113,-0.016247,-0.038981,-0.101710
41.372163,0.054083,-0.048866,-0.091948
41.392213,0.156268,-0.109104,-0.070586
41.402223,0.163651,-0.144430,-0.057914
41.422273,0.115556,-0.197711,-0.049754
41.442323,0.030215,-0.219810,-0.060776
41.462373,-0.077277,-0.167162,-0.054415
41.472413,-0.115485,-0.108302,-0.054242
41.492463,-0.127934,0.008078,-0.039839
41.502473,-0.116071,0.051764,-0.026781
41.522523,-0.024326,0.047959,0.037547
41.542573,0.022555,-0.009239,0.131409
41.552613,0.039574,-0.042582,0.169754
41.572664,0.125772,-0.128620,0.237951
41.592714,0.151341,-0.158833,0.285948
41.612764,0.210991,-0.159994,0.264743
41.622804,0.195005,-0.147020,0.242328
41.642854,0.089494,-0.099289,0.157873
41.652864,0.041503,-0.075340,0.094829
41.672914,-0.062953,-0.024348,-0.002426
41.703004,-0.196091,0.055526,-0.090009
41.703004,-0.196091,0.055526,-0.090009
41.723054,-0.147101,0.018855,-0.047319
41.743104,-0.090612,-0.030883,0.043400
41.763154,0.030945,-0.060542,0.134394
41.773164,0.089650,-0.053464,0.178387
41.793214,0.142103,0.016738,0.202364
41.813264,0.143283,0.096085,0.134377
41.833314,0.019572,0.124744,0.030554
41.843354,-0.059427,0.112483,-0.032747
41.853364,-0.117146,0.083036,-0.089661
41.873414,-0.130312,-0.022374,-0.147879
41.893464,-0.051723,-0.129463,-0.139623
41.913514,0.049483,-0.169508,-0.096804
41.923555,0.093234,-0.160124,-0.078479
41.943605,0.129609,-0.115435,-0.068553
41.953645,0.118999,-0.089699,-0.083416
41.973695,0.058291,-0.055166,-0.117603
42.003755,-0.071707,-0.012826,-0.174378
42.003755,-0.071707,-0.012826,-0.174378
42.023805,-0.064354,-0.030823,-0.212898
42.043855,-0.076228,-0.087400,-0.209994
42.063905,-0.081692,-0.147278,-0.191064
42.073945,-0.049748,-0.170988,-0.167588
42.093995,0.016449,-0.181269,-0.071314
42.114045,0.077472,-0.122007,0.001773
42.134114,0.142696,-0.065790,0.038539
42.144124,0.157683,-0.054197,0.061068
42.154164,0.126821,-0.042395,0.070652
42.174215,-0.025629,-0.030998,0.023283
42.194265,-0.114188,-0.054099,0.000497
42.214315,-0.171637,-0.017618,0.003715
42.224324,-0.173668,0.016543,0.008144
42.244374,-0.127581,0.079133,0.065183
42.254415,-0.096556,0.096975,0.110218
42.274465,0.010076,0.070609,0.192640
42.304525,0.076073,0.008176,0.251279
42.304525,0.076073,0.008176,0.251279
42.324605,0.091969,0.010569,0.186173
42.344655,0.020467,0.044489,0.063292
42.374715,-0.121501,0.077953,-0.140971
42.374715,-0.121501,0.077953,-0.140971
42.384755,-0.134405,0.055735,-0.176363
42.404805,-0.112306,-0.044697,-0.182118
42.424855,-0.068770,-0.142354,-0.111958
42.444905,0.076212,-0.182789,-0.016677
42.454915,0.124292,-0.167164,0.033736
42.474965,0.116091,-0.094917,0.118444
42.485006,0.121545,-0.063013,0.143178
42.505056,0.124888,0.005456,0.115738
42.525106,0.044029,0.074213,0.084862
42.535115,0.022724,0.094715,0.054990
42.555165,-0.039255,0.063116,0.004463
42.575215,-0.116165,-0.019033,0.039113
42.595266,-0.116143,-0.047112,0.105209
42.605306,-0.080858,-0.020655,0.132137
42.625356,-0.014404,0.096435,0.168126
42.635366,0.030504,0.150770,0.165302
42.655416,0.050807,0.185009,0.137747
42.685506,0.003573,0.109753,0.049667
42.685506,0.003573,0.109753,0.049667
42.705556,-0.025473,0.055762,-0.030785
42.725606,-0.054436,0.026282,-0.100438
42.745656,-0.076886,0.025495,-0.144301
42.755696,-0.049179,0.023264,-0.143166
42.775747,0.060630,0.016343,-0.109781
42.785756,0.105404,0.011855,-0.094724
42.805806,0.126659,-0.013875,-0.088377
42.835897,0.012396,-0.088204,-0.100795
42.835897,0.012396,-0.088204,-0.100795
42.855947,-0.060159,-0.121105,-0.094742
42.875997,-0.038875,-0.149082,-0.064905
42.896047,0.002795,-0.149546,0.004641
42.906057,0.010353,-0.128333,0.030400
42.926107,0.035067,-0.074110,0.064907
42.936147,0.031949,-0.062504,0.097000
42.956197,0.068209,-0.050844,0.090746
42.976247,0.019123,-0.061268,0.070265
42.986257,-0.026727,-0.069673,0.072235
43.006307,-0.060829,-0.069572,0.074278
43.026357,-0.038368,-0.046196,0.084064
43.046407,-0.014751,0.016746,0.082291
43.056447,0.006616,0.042367,0.069653
43.076497,-0.023201,0.060695,0.053634
43.086538,-0.038144,0.059736,0.040769
43.106588,-0.008427,0.024489,0.021457
43.136662,-0.012677,0.054622,-0.024346
43.156712,0.016101,0.076069,-0.062620
43.176762,-0.025457,0.098798,-0.097879
43.186803,-0.035064,0.101031,-0.111781
43.206853,0.004301,0.080658,-0.121383
43.226903,0.086150,-0.008328,-0.104486
43.236913,0.115855,-0.067237,-0.088660
43.256963,0.137977,-0.179594,-0.057084
43.277013,0.157043,-0.229909,-0.044450
43.287053,0.143211,-0.215936,-0.054036
43.307103,0.118841,-0.138753,-0.098604
43.327153,0.031651,-0.026013,-0.166677
43.347203,-0.028008,0.007494,-0.210480
43.357213,-0.078113,-0.000922,-0.203181
43.377263,-0.155877,-0.010488,-0.159644
43.387303,-0.157926,-0.006432,-0.112629
43.407353,-0.106466,0.036610,0.009493
43.437413,0.046369,0.124176,0.132106
43.437413,0.046369,0.124176,0.132106
43.457494,0.092195,0.124038,0.130095
43.477544,0.022722,0.088257,0.065641
43.497594,-0.072396,0.031226,-0.004325
43.507604,-0.073624,-0.022117,-0.015263
43.527654,-0.001466,-0.150615,0.007829
43.537694,0.046388,-0.204293,0.034413
43.557744,0.090098,-0.222788,0.076106
43.567754,0.074242,-0.174674,0.075222
43.587804,-0.004251,-0.017260,0.039430
43.607854,-0.110479,0.142475,-0.016723
43.627904,-0.092303,0.175629,-0.038948
43.637944,-0.077437,0.154211,-0.036872
43.657994,-0.046729,0.076107,-0.027543
43.668004,-0.007428,0.021464,-0.017010
43.688054,0.015878,-0.043872,0.007314
43.708104,0.026547,-0.045020,0.016952
43.738194,0.125681,-0.038925,0.015118
43.738194,0.125681,-0.038925,0.015118
43.758244,0.087248,-0.042905,-0.020258
43.768254,0.071182,-0.052297,-0.055598
43.788304,0.033691,-0.080666,-0.128474
43.818395,-0.111374,-0.080904,-0.204719
43.818395,-0.111374,-0.080904,-0.204719
43.838445,-0.095358,-0.088588,-0.171597
43.858495,-0.087678,-0.038678,-0.116861
43.878545,0.012584,-0.041402,-0.061049
43.888585,0.046664,-0.073748,-0.019448
43.908635,0.000789,-0.125158,0.043207
43.918645,0.000747,-0.149802,0.060182
43.938695,0.048695,-0.188696,0.122086
43.968785,0.069233,-0.113192,0.175911
43.968785,0.069233,-0.113192,0.175911
43.988835,0.090799,-0.012795,0.159354
44.008885,0.008859,0.042006,0.144432
44.028935,-0.110569,0.023192,0.139740
44.038945,-0.110648,-0.011028,0.149192
44.058995,-0.104221,-0.013306,0.174836
44.069035,-0.103004,0.047613,0.164445
44.089085,-0.054677,0.216494,0.101285
44.119145,-0.090724,0.340967,0.001362
44.119145,-0.090724,0.340967,0.001362
44.139210,-0.102886,0.221746,-0.072942
44.159259,-0.075789,0.008156,-0.092037
44.179310,-0.031421,-0.146930,-0.073420
44.189351,0.012193,-0.175890,-0.076642
44.209401,0.118774,-0.164393,-0.096589
44.219441,0.141215,-0.132337,-0.115603
44.239491,0.139109,-0.091476,-0.173099
44.269550,0.047190,-0.137752,-0.261165
44.269550,0.047190,-0.137752,-0.261165
44.289601,-0.047772,-0.168348,-0.275459
44.309651,-0.125410,-0.117988,-0.257276
44.329701,-0.107007,-0.045696,-0.200268
44.339740,-0.053616,-0.031111,-0.159459
44.359791,0.032810,-0.052163,-0.057840
44.369800,0.051996,-0.083468,-0.000251
44.389851,0.084978,-0.160952,0.102022
44.419942,0.115994,-0.185093,0.217361
44.419942,0.115994,-0.185093,0.217361
44.439991,0.068305,-0.075923,0.199586
44.460042,-0.024151,0.065719,0.120952
44.480091,-0.091276,0.114348,0.046222
44.490101,-0.138230,0.104991,0.024684
44.510151,-0.206609,0.044345,0.023139
44.520192,-0.211989,0.012208,0.047541
44.540242,-0.161810,-0.003310,0.133064
44.570302,0.018776,0.122814,0.213207
44.590382,0.137159,0.158805,0.199818
44.610432,0.094270,0.100511,0.135331
44.630482,0.035165,-0.037795,0.064011
44.640492,0.043429,-0.115630,0.031619
44.660542,0.022894,-0.187910,-0.026463
44.670582,0.012236,-0.168486,-0.061651
44.690631,0.035772,-0.088052,-0.148799
44.710683,0.033693,-0.035429,-0.209444
44.720691,-0.014254,-0.021314,-0.225533
44.740742,-0.093196,-0.043449,-0.233334
44.760791,-0.074058,-0.099377,-0.163043
44.770833,-0.059043,-0.093261,-0.111699
44.790883,0.003130,-0.004105,-0.037398
44.810933,0.055761,0.131241,-0.013112
44.820943,0.047382,0.192201,-0.025665
44.840993,0.001554,0.213891,-0.064145
44.851033,-0.047559,0.190626,-0.079346
44.871082,-0.121257,0.138582,-0.089410
44.891133,-0.025588,0.029195,-0.058684
44.901142,0.043558,-0.036325,-0.026757
44.921193,0.103093,-0.113602,0.013634
44.951283,0.133769,-0.170060,-0.037822
44.971332,0.020717,-0.180220,-0.070229
44.991383,-0.032597,-0.177815,-0.090661
45.001423,-0.042166,-0.171397,-0.086384
45.021474,-0.078272,-0.139378,-0.057491
45.041523,-0.133446,-0.071037,-0.017796
45.061574,-0.086320,-0.024525,0.050920
45.091633,-0.000752,0.030250,0.152896
45.091633,-0.000752,0.030250,0.152896
45.101674,0.022714,0.024728,0.175367
45.121724,0.024775,-0.020299,0.210410
45.141791,0.029975,-0.073768,0.221922
45.161841,0.011837,-0.071493,0.204791
45.171851,-0.003046,-0.043557,0.179245
45.191901,-0.030632,0.046624,0.098412
45.201941,-0.062512,0.103520,0.058000
45.221991,-0.084855,0.162718,-0.024034
45.252051,-0.099019,0.066792,-0.054437
45.252051,-0.099019,0.066792,-0.054437
45.272101,-0.083219,-0.023154,-0.015295
45.292151,-0.020272,-0.026794,0.034000
45.312201,0.067377,0.055061,0.053857
45.322241,0.082416,0.103115,0.044512
45.342291,0.095211,0.146145,-0.030024
45.352301,0.091872,0.119674,-0.076091
45.372382,0.016881,0.023110,-0.155803
45.402441,-0.018711,-0.085320,-0.237599
45.402441,-0.018711,-0.085320,-0.237599
45.422492,0.013234,-0.088562,-0.251413
45.442542,0.045243,-0.084470,-0.235281
45.462592,0.086798,-0.110422,-0.195766
45.472632,0.095297,-0.132983,-0.173416
45.492682,0.080360,-0.155508,-0.142586
45.502692,0.064393,-0.151209,-0.137269
45.522742,-0.020697,-0.085773,-0.140399
45.552832,-0.094948,0.055536,-0.161300
45.552832,-0.094948,0.055536,-0.161300
45.572882,-0.091635,0.091785,-0.150437
45.592932,-0.137464,0.076851,-0.122861
45.612982,-0.122680,-0.006784,-0.062328
45.622992,-0.091863,-0.064765,-0.017652
45.643042,-0.015285,-0.173305,0.072845
45.653082,0.019861,-0.207810,0.118712
45.673132,0.106182,-0.238226,0.167944
45.713232,0.085013,-0.169683,0.141505
45.723242,0.029650,-0.134139,0.115883
45.743323,-0.110870,-0.045875,0.065706
45.753333,-0.153408,-0.004021,0.051899
45.773383,-0.196897,0.074095,0.048944
45.793433,-0.158353,0.120812,0.080250
45.813483,-0.085816,0.120379,0.122109
45.823523,-0.054912,0.109519,0.139234
45.843573,-0.011257,0.076119,0.171243
45.853583,0.012137,0.053591,0.176542
45.873633,0.070612,0.006458,0.166867
45.893683,0.046047,0.011011,0.124092
45.913733,0.073636,0.017769,0.031266
45.923773,0.079943,0.011563,-0.015748
45.943823,-0.004420,0.002666,-0.108957
45.953833,-0.027965,-0.012032,-0.146479
45.973883,-0.012154,-0.054614,-0.186161
46.003973,-0.045161,-0.038452,-0.193653
46.003973,-0.045161,-0.038452,-0.193653
46.024023,-0.020601,-0.016060,-0.203093
46.034033,-0.008904,-0.027860,-0.199912
46.054083,-0.013246,-0.065300,-0.184078
46.074133,-0.083528,-0.050181,-0.171382
46.084174,-0.098368,-0.026694,-0.159562
46.104224,-0.040682,-0.005755,-0.110166
46.124274,-0.003333,-0.026490,-0.041795
46.154392,-0.003445,-0.127392,0.066685
46.154392,-0.003445,-0.127392,0.066685
46.174442,-0.039817,-0.164550,0.045045
46.184452,-0.050500,-0.171976,0.041775
46.204502,-0.138688,-0.084225,0.064379
46.224552,-0.139304,0.063011,0.094984
46.234592,-0.103955,0.116192,0.116698
46.254642,-0.070633,0.184133,0.180136
46.274692,-0.096089,0.216143,0.203717
46.304752,-0.104714,0.193861,0.179019
46.304752,-0.104714,0.193861,0.179019
46.324802,-0.082503,0.156628,0.132971
46.334843,-0.033586,0.132038,0.105217
46.354893,0.016288,0.079785,0.054901
46.384952,0.052057,-0.033033,-0.051287
46.384952,0.052057,-0.033033,-0.051287
46.405002,0.017711,-0.083869,-0.117851
46.425052,0.032383,-0.152067,-0.159794
46.455143,0.058787,-0.233260,-0.171855
46.455143,0.058787,-0.233260,-0.171855
46.475193,0.061968,-0.236449,-0.177202
46.485203,0.036432,-0.223576,-0.171871
46.505283,-0.020901,-0.162685,-0.136490
46.535343,0.031744,-0.090938,0.012476
46.535343,0.031744,-0.090938,0.012476
46.555393,0.052271,-0.035867,0.096114
46.575443,0.037464,0.012294,0.084551
46.595493,-0.049869,0.072706,0.016229
46.605533,-0.084015,0.075099,-0.014832
46.625583,-0.136343,0.042204,-0.023678
46.635593,-0.111868,0.016393,-0.002368
46.655643,-0.034078,-0.034447,0.080927
46.675693,0.036380,-0.028577,0.146311
46.685734,0.067365,-0.005224,0.155052
46.705784,0.120657,0.019373,0.111519
46.725834,0.065068,0.005002,0.026909
46.745884,-0.053486,-0.032599,-0.070804
46.755894,-0.070681,-0.066565,-0.103059
46.775944,-0.055925,-0.119949,-0.116089
46.785984,-0.046338,-0.126429,-0.107547
46.806034,-0.007904,-0.110600,-0.093480
46.836094,0.001872,-0.068127,-0.048387
46.836094,0.001872,-0.068127,-0.048387
46.856144,-0.010810,-0.043649,-0.021601
46.876194,-0.001168,-0.044915,0.013671
46.886234,-0.013936,-0.040632,0.020065
46.906284,-0.059726,-0.019064,0.007222
46.926334,-0.074655,-0.022225,0.008234
46.936374,-0.094885,-0.018990,0.015671
46.956425,-0.089451,0.002204,0.046765
46.976475,-0.061562,0.039254,0.097223
46.986484,-0.059336,0.061567,0.119767
47.006534,-0.059213,0.095650,0.139157
47.026584,-0.029401,0.080566,0.146645
47.046634,0.010892,0.011075,0.134677
47.056675,0.032049,-0.039121,0.120612
47.076725,0.033943,-0.111626,0.094637
47.086735,0.020018,-0.126440,0.075300
47.106785,0.004019,-0.104807,0.028357
47.136878,-0.020349,-0.014703,-0.038581
47.136878,-0.020349,-0.014703,-0.038581
47.156928,-0.021387,0.008911,-0.063042
47.176978,-0.005454,-0.006051,-0.071614
47.197028,-0.006598,-0.031653,-0.077079
47.207038,-0.017266,-0.033739,-0.080323
47.227088,0.006177,-0.038112,-0.074938
47.237128,0.031758,-0.043585,-0.064211
47.257178,-0.000125,-0.022224,-0.042834
47.287269,-0.001123,0.010956,-0.057635
47.287269,-0.001123,0.010956,-0.057635
47.307319,-0.042618,0.039950,-0.062953
47.327369,-0.075696,0.041257,-0.090812
47.337378,-0.081085,0.019921,-0.091996
47.357429,-0.096077,-0.017509,-0.070850
47.377479,-0.091782,-0.021931,-0.042018
47.387519,-0.076800,-0.012480,-0.018431
47.407569,-0.056416,0.015038,0.020211
47.427619,-0.053178,0.018131,0.041599
47.437629,-0.063893,0.003265,0.030817
47.457679,-0.071448,-0.012568,-0.003462
47.477729,-0.064967,0.005450,0.021210
47.497779,-0.009437,0.030778,0.047121
47.507819,0.040645,0.020954,0.057895
47.517829,0.072591,0.000473,0.076046
47.537879,0.069219,-0.070060,0.088522
47.557929,0.066851,-0.152248,0.080649
47.577979,0.049735,-0.161688,0.055988
47.588019,0.052928,-0.151991,0.035747
47.608069,0.056140,-0.127272,0.000621
47.618079,0.045488,-0.118638,-0.011118
47.638129,-0.003509,-0.095951,-0.032510
47.668220,-0.052295,0.007934,-0.060995
47.668220,-0.052295,0.007934,-0.060995
47.688270,-0.064964,0.056067,-0.068280
47.708320,-0.060742,0.031410,-0.051294
47.728370,-0.039525,-0.032978,-0.000265
47.738410,-0.020371,-0.058797,0.026371
47.758460,0.001036,-0.054847,0.079859
47.768470,0.023473,-0.043244,0.094931
47.788520,0.066150,-0.028446,0.098324
47.818610,0.072325,-0.085938,0.056409
47.818610,0.072325,-0.085938,0.056409
47.838660,0.032657,-0.150781,0.019673
47.858710,-0.010033,-0.149383,-0.021030
47.888770,-0.017340,-0.070129,-0.063404
47.888770,-0.017340,-0.070129,-0.063404
47.908820,-0.039611,-0.028397,-0.065405
47.918860,-0.041702,-0.017747,-0.057883
47.938910,-0.058656,-0.002922,-0.019404
47.958960,-0.047890,0.003162,0.041543
47.968970,-0.009498,-0.007809,0.076848
47.989020,0.043826,-0.029634,0.138849
48.009070,0.061968,-0.031920,0.158116
48.029120,0.066204,-0.026462,0.130380
48.039161,0.058725,-0.014529,0.096233
48.059211,-0.008465,0.015991,0.011803
48.069251,-0.039411,0.026983,-0.033096
48.089301,-0.074681,0.027411,-0.099421
48.119361,-0.046091,-0.047498,-0.086877
48.119361,-0.046091,-0.047498,-0.086877
48.139429,-0.039664,-0.055161,-0.051645
48.159479,0.022258,-0.034150,-0.020396
48.179529,0.009637,0.019217,-0.005224
48.189569,0.007551,0.035238,-0.004085
48.209619,0.012814,0.006346,0.004338
48.219629,-0.011768,-0.021366,0.009480
48.239679,-0.035316,-0.068370,0.028421
48.269770,0.050992,-0.094432,0.060582
48.269770,0.050992,-0.094432,0.060582
48.289820,0.058464,-0.098804,0.076606
48.309870,0.049908,-0.108378,0.074400
48.329920,0.012588,-0.114664,0.074267
48.339929,-0.002321,-0.112500,0.078509
48.359979,0.009433,-0.111556,0.096706
48.370020,0.004164,-0.096649,0.109580
48.390070,-0.016940,-0.015381,0.102429
48.420130,-0.097647,0.128298,0.036656
48.420130,-0.097647,0.128298,0.036656
48.440210,-0.114701,0.138051,0.018496
48.460260,-0.096667,0.098402,0.034381
48.480310,-0.018934,0.052052,0.071764
48.490320,0.015149,0.035856,0.085669
48.510370,0.053459,0.011139,0.092067
48.520410,0.050240,0.010142,0.079235
48.540460,0.033139,0.018969,0.031160
48.570520,0.044673,-0.004169,-0.052239
48.570520,0.044673,-0.004169,-0.052239
48.590570,0.032807,-0.035997,-0.088741
48.610620,0.032647,-0.086119,-0.103934
48.620661,0.044279,-0.119257,-0.105127
48.640711,0.037765,-0.168412,-0.094695
48.650720,0.018574,-0.174793,-0.087301
48.670770,0.004814,-0.147042,-0.074389
48.690821,0.003934,-0.089457,-0.055959
48.710871,-0.020425,-0.041391,-0.040844
48.720911,-0.029989,-0.034988,-0.033363
48.740961,-0.075770,-0.028528,-0.013163
48.761011,-0.104490,-0.022148,0.012425
48.771021,-0.089546,-0.026579,0.035946
48.791071,-0.051113,-0.035526,0.094762
48.811151,-0.024349,-0.026294,0.156836
48.821161,-0.008311,-0.018967,0.177211
48.841211,0.031197,-0.007479,0.205148
48.861261,-0.018813,0.026892,0.197695
48.871301,-0.014556,0.034440,0.179583
48.891352,0.012017,0.027040,0.145438
48.911402,-0.040234,0.054226,0.078125
48.931452,-0.036104,0.048169,0.001196
48.941461,-0.034051,0.033333,-0.024505
48.951502,-0.060765,0.018555,-0.042809
48.971552,-0.082221,-0.020788,-0.064418
48.991602,0.010382,-0.079952,-0.037737
49.021662,0.047679,-0.082209,-0.037645
49.041712,0.048694,-0.096055,-0.046253
49.061762,0.002794,-0.117224,-0.055026
49.071802,-0.000458,-0.135354,-0.058325
49.091852,0.039966,-0.176178,-0.034906
49.101862,0.033603,-0.176258,-0.013559
49.121912,0.034825,-0.135822,0.016545
49.141982,0.063844,-0.064511,0.047941
49.162032,0.043810,0.024279,0.030146
49.172072,0.031080,0.061834,0.001447
49.192122,-0.041356,0.112576,-0.064743
49.202163,-0.081880,0.123554,-0.100054
49.222213,-0.127749,0.125985,-0.131147
49.252272,-0.071284,0.092479,-0.085217
49.252272,-0.071284,0.092479,-0.085217
49.272322,0.025604,0.017075,-0.014803
49.292373,0.033008,-0.034478,0.041588
49.312423,0.027649,-0.049447,0.048980
49.322463,0.019119,-0.051561,0.050015
49.342513,0.016944,-0.065422,0.046739
49.352523,0.029701,-0.075054,0.042456
49.372573,0.007274,-0.084532,0.029530
49.392623,-0.023689,-0.095030,0.012304
49.402663,-0.032224,-0.099284,0.014396
49.422713,-0.036462,-0.099351,0.031476
49.442763,0.010515,-0.080372,0.050923
49.462813,0.032984,-0.064562,0.079902
49.472823,0.017012,-0.060249,0.082014
49.492873,0.009594,-0.039894,0.073545
49.502913,0.006412,-0.030236,0.066104
49.522963,-0.044732,-0.009648,0.038286
49.543013,-0.055394,-0.006369,0.029727
49.553023,-0.044717,0.001077,0.028723
49.573073,-0.019118,0.014932,0.017109
49.593154,-0.003179,0.002106,0.008547
49.613204,-0.002160,-0.006365,-0.007514
49.623214,0.014864,-0.009564,-0.020300
49.643264,0.035067,-0.018097,-0.036308
49.653304,0.022251,-0.021204,-0.048108
49.673354,0.023235,-0.037104,-0.073818
49.693404,0.015730,-0.045558,-0.087766
49.703414,0.002953,-0.038016,-0.093106
49.723464,0.014678,-0.031595,-0.103726
49.743514,0.049782,-0.068120,-0.082437
49.763564,0.019885,-0.098012,-0.064501
49.773604,0.027319,-0.113032,-0.054938
49.793654,0.025201,-0.131383,-0.012302
49.803664,0.008210,-0.122905,0.013328
49.823714,0.028618,-0.087922,0.054142
49.853804,0.040606,-0.022011,0.110034
49.853804,0.040606,-0.022011,0.110034
49.873854,0.006618,0.032665,0.088835
49.893904,-0.042441,0.048008,0.039634
49.913955,-0.133057,0.059149,0.004185
49.923964,-0.141608,0.053867,-0.002273
49.944014,-0.104329,0.040895,0.005246
49.954055,-0.040413,0.007395,0.044788
49.974105,-0.011586,0.006066,0.080113
50.004195,0.036432,0.032659,0.069689
50.004195,0.036432,0.032659,0.069689
50.024245,0.002296,0.050100,0.018403
50.034255,-0.024398,0.049265,-0.012653
50.054305,-0.035239,0.010024,-0.063075
50.094405,-0.016367,-0.090307,-0.088066
50.104445,-0.006777,-0.094640,-0.081651
50.124495,0.015616,-0.089363,-0.083700
50.134505,0.016705,-0.080823,-0.083657
50.154570,-0.006709,-0.066849,-0.086860
50.174620,0.010330,-0.081941,-0.068725
50.184660,0.020973,-0.097008,-0.051675
50.204711,0.049743,-0.121856,-0.011121
50.224761,0.027441,-0.118807,0.036901
50.234770,0.024303,-0.104979,0.050845
50.254820,0.039406,-0.053899,0.078902
50.274870,0.003397,0.026288,0.084523
50.294920,-0.009284,0.072306,0.072955
50.304961,-0.010351,0.074466,0.068689
50.325011,-0.031736,0.056441,0.055726
50.335021,-0.041378,0.041551,0.049220
50.355101,-0.017984,0.023331,0.047062
50.375151,0.008657,0.026488,0.038605
50.385161,0.025698,0.027546,0.029043
50.405211,0.026721,0.023372,0.007662
50.425261,0.018083,0.000052,-0.023450
50.445311,-0.020382,-0.021060,-0.049294
50.455351,-0.027880,-0.032768,-0.052575
50.475401,0.015747,-0.069310,-0.033399
50.485411,0.062601,-0.095184,-0.014164
50.505461,0.074358,-0.096406,0.010432
50.535552,0.044546,-0.081323,0.002943
50.535552,0.044546,-0.081323,0.002943
50.555602,-0.044907,-0.045720,-0.012091
50.575652,-0.045907,-0.022227,-0.010914
50.585661,-0.033082,-0.018073,0.005164
50.605711,-0.010615,-0.004409,0.036269
50.625762,0.018215,0.009330,0.047096
50.635802,0.020354,0.013610,0.043917
50.655852,-0.006322,0.015949,0.019286
50.685912,-0.038337,0.020491,-0.016032
50.685912,-0.038337,0.020491,-0.016032
50.705962,-0.042578,0.035517,-0.028791
