time_tick,gyr_X_value,gyr_Y_value,gyr_Z_value
0.004438,-0.009661,-0.026682,0.003052
0.014479,0.006370,-0.009637,0.001040
0.024488,-0.006455,-0.022411,0.000944
0.034529,-0.012854,-0.024531,0.001985
0.044569,-0.017111,-0.022381,0.001983
0.054579,-0.009660,-0.024531,-0.000143
0.064619,-0.003243,-0.017082,0.000978
0.074629,0.002080,-0.019235,0.000983
0.084669,-0.011782,-0.024555,0.006261
0.094679,-0.021405,-0.033042,0.000853
0.104719,-0.005370,-0.014934,-0.000085
0.114729,0.003162,-0.012826,-0.000052
0.124769,-0.008588,-0.023477,0.002002
0.134809,-0.019257,-0.027714,0.001952
0.144819,-0.008583,-0.022414,0.003075
0.154860,-0.002165,-0.013891,0.003133
0.164869,-0.001115,-0.019229,0.002042
0.174910,-0.012852,-0.025614,0.005184
0.184919,-0.018184,-0.024509,0.000902
0.194960,-0.009642,-0.018124,-0.000112
0.205000,0.005278,-0.018167,-0.001140
0.215010,-0.001115,-0.019229,0.002042
0.225050,-0.011796,-0.028816,0.004104
0.235060,-0.012867,-0.029876,0.003028
0.245100,-0.002170,-0.013876,-0.000072
0.255110,0.004213,-0.018169,-0.000074
0.265150,-0.009650,-0.023483,0.004135
0.275190,-0.015001,-0.030937,0.003017
0.285200,-0.007525,-0.023470,-0.000132
0.295240,0.003162,-0.012826,-0.000052
0.305250,-0.001105,-0.016031,0.003126
0.315290,-0.019248,-0.025588,0.004099
0.325300,-0.011801,-0.029879,0.003031
0.335340,-0.004296,-0.013884,0.003127
0.345350,-0.000047,-0.018165,0.002050
0.355391,-0.009647,-0.022416,0.004140
0.365431,-0.018186,-0.025582,0.001965
0.375441,-0.002181,-0.019226,0.002039
0.385481,-0.000036,-0.014966,0.003134
0.395491,-0.005381,-0.020283,0.002026
0.405531,-0.009653,-0.025629,0.006261
0.415541,-0.012852,-0.024536,0.003053
0.425581,-0.003243,-0.017082,0.000978
0.435621,0.003145,-0.020311,0.002049
0.445631,-0.010714,-0.020256,-0.000125
0.455671,-0.017124,-0.027726,0.003026
0.465681,-0.005392,-0.024560,0.003074
0.475721,0.002103,-0.011764,0.002087
0.485731,-0.003256,-0.022426,0.002021
0.495771,-0.010713,-0.022412,0.004137
0.505812,-0.020311,-0.023439,0.001969
0.515821,-0.005377,-0.017064,-0.001164
0.525862,0.004215,-0.018174,0.000994
0.535872,-0.007521,-0.022407,0.000941
0.545912,-0.013919,-0.025605,0.004113
0.555922,-0.008586,-0.023482,0.003070
0.565962,-0.006424,-0.011737,0.002063
0.575972,-0.002193,-0.022420,-0.000112
0.586012,-0.008579,-0.020273,0.002017
0.596052,-0.016048,-0.023453,0.001981
0.606062,-0.005387,-0.022419,0.002015
0.616102,-0.002171,-0.016027,0.003123
0.616102,-0.002171,-0.016027,0.003123
0.636152,-0.012849,-0.024546,0.005189
0.646162,-0.013912,-0.022397,0.003060
0.656202,0.001038,-0.010688,0.001021
0.666243,-0.004316,-0.020287,0.002029
0.676252,-0.007511,-0.020282,0.003088
0.686293,-0.010731,-0.027742,0.001976
0.696302,-0.011773,-0.019195,0.002013
0.706343,-0.000041,-0.014951,-0.000071
0.716352,-0.011781,-0.021326,0.000935
0.726393,-0.012845,-0.022405,0.004131
0.736433,-0.009653,-0.023473,0.001999
0.746443,-0.003235,-0.014951,0.002057
0.756483,-0.006455,-0.022411,0.000944
0.766493,-0.011787,-0.023461,0.000925
0.776533,-0.014985,-0.024524,0.001979
0.776533,-0.014985,-0.024524,0.001979
0.796583,-0.003238,-0.016019,0.002052
0.806593,-0.010717,-0.021324,-0.000130
0.816633,-0.011791,-0.025602,0.001983
0.826674,-0.009657,-0.023463,-0.000138
0.836701,-0.001099,-0.013895,0.003136
0.836701,-0.001099,-0.013895,0.003136
0.856751,-0.009649,-0.021332,0.000941
0.856751,-0.009649,-0.021332,0.000941
0.876801,-0.007511,-0.020282,0.003088
0.876801,-0.007511,-0.020282,0.003088
0.886842,-0.001093,-0.010681,0.001015
0.906892,-0.007516,-0.021344,0.002015
0.906892,-0.007516,-0.021344,0.002015
0.926942,-0.005377,-0.019221,0.003099
0.926942,-0.005377,-0.019221,0.003099
0.936982,0.002100,-0.012832,0.002082
0.957032,-0.006466,-0.026682,0.000924
0.967072,-0.006449,-0.020275,0.000954
0.977082,-0.002172,-0.016022,0.002055
0.987122,0.001007,-0.022440,0.002033
0.997132,-0.012855,-0.024526,0.000917
0.997132,-0.012855,-0.024526,0.000917
1.007172,-0.009659,-0.025609,0.001989
1.017182,-0.001112,-0.019239,0.004179
1.037232,-0.009662,-0.025599,-0.000148
1.037232,-0.009662,-0.025599,-0.000148
1.047273,-0.010721,-0.024543,0.003059
1.057313,-0.011791,-0.025602,0.001983
1.077363,-0.006444,-0.019212,0.002028
1.077363,-0.006444,-0.019212,0.002028
1.087373,-0.014983,-0.022378,-0.000147
1.097413,-0.010715,-0.022407,0.003069
1.107423,-0.006444,-0.019212,0.002028
1.117463,-0.001098,-0.012822,0.002073
1.127503,-0.004330,-0.025627,0.002003
1.137513,-0.012848,-0.022395,0.001995
1.147553,-0.006462,-0.025620,0.001997
1.157563,-0.001099,-0.013895,0.003136
1.177613,-0.012868,-0.029871,0.001960
1.177613,-0.012868,-0.029871,0.001960
1.187653,-0.010710,-0.020266,0.002011
1.197694,-0.005381,-0.020283,0.002026
1.207703,-0.000045,-0.018170,0.003119
1.217744,-0.009639,-0.019212,0.004155
1.217744,-0.009639,-0.019212,0.004155
1.237794,-0.009649,-0.022411,0.003072
1.247804,-0.003237,-0.016024,0.003120
1.257844,-0.004316,-0.020287,0.002029
1.267854,-0.009655,-0.024546,0.003062
1.277894,-0.013917,-0.023460,0.001987
1.287934,-0.009657,-0.023463,-0.000138
1.297944,0.002095,-0.013895,0.001008
1.307984,-0.006446,-0.020285,0.003091
1.317994,-0.015003,-0.030932,0.001949
1.328034,-0.003259,-0.023494,0.002016
1.338044,-0.003254,-0.022431,0.003090
1.348084,-0.003243,-0.017082,0.000978
1.358125,-0.003255,-0.023504,0.004153
1.368134,-0.020319,-0.025570,0.000891
1.378175,-0.005393,-0.023477,-0.000126
1.388184,0.003164,-0.012831,0.001016
1.398225,-0.009659,-0.025609,0.001989
1.408234,-0.005396,-0.025623,0.002000
1.418275,-0.014981,-0.023461,0.003052
1.428315,-0.002181,-0.019226,0.002039
1.438325,-0.000034,-0.012820,0.001007
1.448365,-0.011788,-0.024534,0.001988
1.458375,-0.009665,-0.027745,0.001978
1.468415,-0.005384,-0.021351,0.002021
1.478425,0.004220,-0.018189,0.004198
1.488465,-0.005374,-0.018153,0.003104
1.498475,-0.010725,-0.025606,0.001986
1.518556,-0.005383,-0.021356,0.003089
1.518556,-0.005383,-0.021356,0.003089
1.528565,0.005287,-0.016041,0.001007
1.538606,-0.011779,-0.021331,0.002003
1.548615,-0.016054,-0.025588,0.001971
1.558656,-0.003250,-0.020290,0.002031
1.578706,-0.002178,-0.018158,0.002045
1.588746,-0.009661,-0.025604,0.000920
1.588746,-0.009661,-0.025604,0.000920
1.598756,-0.014979,-0.022388,0.001989
1.608796,0.001006,-0.022435,0.000965
1.618806,-0.001108,-0.016021,0.000989
1.628846,-0.005398,-0.025618,0.000932
1.638856,-0.008599,-0.027749,0.001981
1.648896,-0.008579,-0.021351,0.004148
1.658936,-0.001117,-0.019224,0.000974
1.668946,0.004224,-0.016048,0.003140
1.678986,-0.012855,-0.025604,0.003048
1.688996,-0.010721,-0.023465,0.000928
1.699036,-0.004314,-0.019214,0.000965
1.709046,0.002079,-0.020308,0.002046
1.719087,-0.005374,-0.018153,0.003104
1.729096,-0.012861,-0.027740,0.003038
1.739137,-0.013909,-0.021329,0.003065
1.749177,-0.001109,-0.018172,0.004184
1.759187,-0.002177,-0.018163,0.003113
1.769227,-0.011785,-0.023466,0.001993
1.779237,-0.009658,-0.024536,0.000925
1.789277,-0.006456,-0.024562,0.004139
1.799287,-0.001105,-0.014953,0.000994
1.809327,-0.003250,-0.021368,0.004163
1.819367,-0.012853,-0.025609,0.004116
1.829377,-0.008585,-0.022409,0.002007
1.839436,-0.006450,-0.021348,0.002018
1.849446,0.002091,-0.016036,0.002066
1.859486,-0.006454,-0.023489,0.003076
1.869496,-0.017123,-0.026653,0.001963
1.879536,-0.006449,-0.019197,-0.001177
1.889546,-0.001121,-0.021365,0.002032
1.899586,-0.002180,-0.019231,0.003108
1.909627,-0.010728,-0.026674,0.001981
1.919637,-0.012857,-0.025599,0.001980
1.929677,-0.004316,-0.020287,0.002029
1.949727,-0.008579,-0.020273,0.002017
1.949727,-0.008579,-0.020273,0.002017
1.959737,-0.010738,-0.029872,0.000897
1.969777,-0.008579,-0.020273,0.002017
1.979817,-0.000050,-0.019233,0.002045
1.989827,-0.002175,-0.018168,0.004181
1.999867,-0.009650,-0.022405,0.002004
2.019917,-0.007513,-0.020277,0.002020
2.019917,-0.007513,-0.020277,0.002020
2.029927,-0.001104,-0.014958,0.002063
2.039967,-0.005369,-0.017090,0.004177
2.050008,-0.013921,-0.025600,0.003045
2.060017,-0.011764,-0.017069,0.004160
2.070058,-0.005377,-0.018143,0.000968
2.090108,-0.004320,-0.022428,0.003087
2.090108,-0.004320,-0.022428,0.003087
2.100117,-0.013927,-0.026658,0.000904
2.110158,-0.004307,-0.017083,0.002044
2.120168,-0.004314,-0.020292,0.003097
2.130208,-0.005374,-0.018153,0.003104
2.140248,-0.013920,-0.024527,0.001982
2.150258,-0.016047,-0.023458,0.003049
2.160298,-0.001123,-0.021360,0.000964
2.170308,0.001015,-0.020309,0.003111
2.180348,-0.010721,-0.024543,0.003059
2.190358,-0.009661,-0.026682,0.003052
2.200398,-0.004320,-0.022428,0.003087
2.210439,-0.004323,-0.023496,0.003082
2.230489,-0.010731,-0.027742,0.001976
2.230489,-0.010731,-0.027742,0.001976
2.240498,-0.010728,-0.026674,0.001981
2.250539,-0.001121,-0.021365,0.002032
2.260548,0.002075,-0.022449,0.003104
2.270589,-0.006437,-0.017081,0.003106
2.280629,-0.014990,-0.025587,0.000906
2.300679,-0.003243,-0.017082,0.000978
2.300679,-0.003243,-0.017082,0.000978
2.310689,-0.002174,-0.017095,0.003118
2.320729,-0.011769,-0.018132,0.003086
2.330739,-0.013921,-0.024522,0.000914
2.340779,-0.005374,-0.018153,0.003104
2.350789,-0.003238,-0.016019,0.002052
2.370869,-0.008580,-0.021346,0.003080
2.370869,-0.008580,-0.021346,0.003080
2.380879,-0.011787,-0.023461,0.000925
2.390919,-0.003244,-0.017076,-0.000090
2.400929,0.001007,-0.021362,-0.000098
2.410970,-0.007506,-0.018146,0.003098
2.420979,-0.007534,-0.027752,0.001984
2.431020,-0.005392,-0.024560,0.003074
2.441060,-0.003247,-0.019222,0.002037
2.451070,-0.000048,-0.018160,0.000982
2.461110,-0.005389,-0.023492,0.003079
2.471120,-0.016059,-0.026651,0.000898
2.481160,-0.006452,-0.021343,0.000949
2.491170,-0.000054,-0.021374,0.003103
2.501210,-0.006446,-0.020285,0.003091
2.511250,-0.007529,-0.026689,0.003058
2.521260,-0.013915,-0.023465,0.003055
2.531300,-0.007512,-0.019204,0.000957
2.541310,0.003151,-0.018175,0.002059
2.551350,-0.011773,-0.020273,0.004144
2.561360,-0.010723,-0.025611,0.003054
2.571400,-0.009641,-0.020280,0.004150
2.581410,-0.001112,-0.018161,0.002047
2.591450,-0.000045,-0.018170,0.003119
2.601491,-0.010713,-0.022412,0.004137
2.611501,-0.009661,-0.026682,0.003052
2.621541,-0.005372,-0.018158,0.004172
2.631551,-0.000039,-0.017112,0.005260
2.651601,-0.010720,-0.025621,0.005190
2.651601,-0.010720,-0.025621,0.005190
2.661641,-0.013915,-0.022387,0.000924
2.671681,-0.001112,-0.018161,0.002047
2.681691,0.001013,-0.020304,0.002043
2.691731,-0.007509,-0.019214,0.003093
2.701741,-0.016055,-0.026661,0.003034
2.721791,-0.001115,-0.019229,0.002042
2.721791,-0.001115,-0.019229,0.002042
2.731831,-0.006450,-0.022426,0.004149
2.741872,-0.007519,-0.023490,0.004141
2.751881,-0.012849,-0.023468,0.003058
2.761922,-0.006450,-0.021348,0.002018
2.771931,0.003154,-0.017107,0.002064
2.781972,-0.009636,-0.018144,0.004160
2.791981,-0.010721,-0.024543,0.003059
2.802022,-0.008586,-0.023482,0.003070
2.812032,-0.005369,-0.017090,0.004177
2.822072,-0.001108,-0.017099,0.003121
2.832126,-0.008576,-0.020283,0.004153
2.842136,-0.016041,-0.021322,0.003059
2.852176,-0.010709,-0.020271,0.003079
2.862186,0.002085,-0.018172,0.002056
2.872226,-0.006435,-0.017086,0.004174
2.882236,-0.009649,-0.022411,0.003072
2.892276,-0.016047,-0.023458,0.003049
2.902317,-0.012836,-0.018123,0.002015
2.912326,-0.001103,-0.016036,0.004194
2.922367,-0.007505,-0.019224,0.005229
2.932376,-0.013916,-0.025616,0.006250
2.942417,-0.012852,-0.025614,0.005184
2.952426,-0.001106,-0.017104,0.004189
2.962467,-0.001124,-0.023511,0.004159
2.972507,-0.008574,-0.020288,0.005221
2.982517,-0.007533,-0.029908,0.006247
2.992557,-0.011777,-0.022414,0.005202
3.002567,0.001018,-0.020319,0.005248
3.012607,-0.004308,-0.019234,0.005238
3.022617,-0.011774,-0.021346,0.005208
3.032657,-0.013925,-0.027741,0.004103
3.042667,-0.004312,-0.020297,0.004165
3.052707,-0.003233,-0.016034,0.005256
3.072757,-0.006438,-0.019232,0.006301
3.082798,-0.014978,-0.023471,0.005189
3.092807,-0.006441,-0.019222,0.004164
3.102848,0.004224,-0.017126,0.005272
3.112857,-0.009644,-0.022426,0.006277
3.122898,-0.009644,-0.022426,0.006277
3.132938,-0.012837,-0.021352,0.007341
3.142948,-0.002178,-0.020314,0.006307
3.152988,0.001027,-0.018194,0.007394
3.162998,-0.011777,-0.023492,0.007334
3.173038,-0.013914,-0.025621,0.007318
3.183048,-0.008570,-0.019225,0.006295
3.193088,0.001018,-0.021397,0.007379
3.213138,-0.007517,-0.025652,0.009472
3.213138,-0.007517,-0.025652,0.009472
3.223178,-0.013909,-0.023485,0.007328
3.233188,-0.004308,-0.020312,0.007369
3.243228,-0.001109,-0.019250,0.006315
3.253238,-0.009638,-0.020290,0.006287
3.263278,-0.014979,-0.024544,0.006252
3.273288,-0.009647,-0.024572,0.008403
3.283329,-0.003231,-0.017117,0.008456
3.293369,-0.004308,-0.019234,0.005238
3.303379,-0.010704,-0.021364,0.008415
3.313419,-0.012847,-0.024551,0.006258
3.323429,-0.006445,-0.021363,0.005222
3.333469,-0.003233,-0.017112,0.007388
3.353519,-0.008572,-0.021371,0.008421
3.353519,-0.008572,-0.021371,0.008421
3.363559,-0.012855,-0.027760,0.007311
3.373569,-0.004296,-0.014962,0.005258
3.383609,0.003160,-0.018206,0.008468
3.393619,-0.006430,-0.018180,0.009510
3.403659,-0.003267,-0.029932,0.008395
3.423709,-0.005355,-0.012828,0.006334
3.433750,0.004226,-0.017131,0.006340
3.443759,-0.017097,-0.020271,0.007334
3.453800,-0.014997,-0.030952,0.006221
3.463809,-0.007480,-0.011763,0.008469
3.473850,0.003172,-0.013934,0.008489
3.493900,-0.018189,-0.029879,0.007286
3.493900,-0.018189,-0.029879,0.007286
3.503910,-0.019204,-0.010647,0.006306
3.513950,0.014887,-0.017176,0.008506
3.523990,-0.002150,-0.010708,0.007421
3.534000,-0.024594,-0.034135,0.008316
3.544040,-0.014945,-0.012802,0.007376
3.564090,-0.001087,-0.012857,0.009550
3.574100,-0.018186,-0.028811,0.007291
3.584140,-0.021346,-0.015995,0.009479
3.594181,0.019140,-0.021466,0.009565
3.604190,-0.003214,-0.010709,0.008486
3.614231,-0.029893,-0.022365,0.007289
3.634281,0.009579,-0.010761,0.010658
3.644290,-0.012837,-0.021352,0.007341
3.654331,-0.026668,-0.014920,0.011606
3.664340,0.009578,-0.011834,0.011721
3.674381,-0.006433,-0.020326,0.011636
3.684421,-0.027741,-0.014896,0.007330
3.704471,-0.009601,-0.008558,0.009547
3.714481,-0.020309,-0.025600,0.007300
3.724521,0.005304,-0.015019,0.010626
3.734531,-0.004273,-0.010726,0.012756
3.744571,-0.010699,-0.020302,0.009488
3.754611,-0.000030,-0.016064,0.009538
3.774662,-0.006436,-0.021393,0.011631
3.784671,-0.003227,-0.014976,0.007398
3.794712,-0.001079,-0.010726,0.010628
3.804721,-0.009611,-0.013913,0.012726
3.814762,-0.010682,-0.013894,0.009519
3.824802,0.008504,-0.012883,0.008508
3.844892,-0.018151,-0.013901,0.007397
3.844892,-0.005356,-0.013901,0.007397
3.854902,0.002113,-0.010722,0.007433
3.864942,-0.026670,-0.015993,0.012669
3.874952,0.010617,-0.020371,0.009547
3.884992,0.003193,-0.007536,0.010655
3.895002,-0.027759,-0.023455,0.010494
3.915082,-0.005347,-0.012853,0.011675
3.925092,-0.019228,-0.023498,0.013722
3.935132,0.010648,-0.009697,0.010666
3.945142,-0.012813,-0.016043,0.013775
3.955182,-0.007506,-0.023531,0.012687
3.965192,0.003177,-0.012871,0.009562
3.985273,-0.004307,-0.023546,0.013763
3.995283,0.001045,-0.013942,0.011687
4.005323,-0.012825,-0.019237,0.011624
4.015333,-0.002154,-0.017156,0.015936
4.025373,-0.012811,-0.016048,0.014844
4.035383,-0.004300,-0.020337,0.012710
4.055463,-0.025614,-0.020273,0.013720
4.065473,0.009581,-0.011844,0.013857
4.075513,-0.007500,-0.021395,0.012697
4.085523,-0.023482,-0.020280,0.013726
4.095563,0.009579,-0.011839,0.012789
4.105573,-0.024550,-0.021350,0.014786
4.125623,0.010654,-0.008639,0.012807
4.135663,-0.032007,-0.019180,0.012639
4.145704,0.001018,-0.025705,0.014836
4.155713,0.002125,-0.010757,0.014910
4.165754,-0.025639,-0.029890,0.014743
4.175764,0.003177,-0.015027,0.013824
4.195814,-0.010719,-0.032089,0.017978
4.205854,0.005306,-0.015024,0.011694
4.215894,-0.022424,-0.023493,0.014782
4.225904,-0.004301,-0.022489,0.015905
4.235944,-0.011742,-0.014984,0.014852
4.245954,-0.008575,-0.027824,0.018004
4.255994,0.001031,-0.019282,0.011662
4.266004,-0.029871,-0.019202,0.015850
4.276044,-0.003230,-0.021429,0.016981
4.286085,-0.000014,-0.013959,0.015957
4.296094,-0.025640,-0.029885,0.013675
4.306135,0.005307,-0.015029,0.012762
4.316144,-0.020261,-0.013903,0.018038
4.336194,0.003183,-0.013969,0.015966
4.346235,-0.033096,-0.028798,0.014727
4.356244,0.011714,-0.012934,0.017063
4.366285,-0.011741,-0.014989,0.015920
4.376325,-0.019241,-0.029921,0.016897
4.386335,0.008508,-0.015050,0.014907
4.406385,-0.009628,-0.023554,0.019090
4.416425,-0.004280,-0.015013,0.015940
4.426435,-0.021358,-0.024574,0.016916
4.436475,-0.001099,-0.020358,0.014856
4.436475,-0.001099,-0.020358,0.014856
4.456525,-0.009635,-0.025685,0.018011
4.476575,-0.024554,-0.023491,0.015844
4.486616,-0.000029,-0.019299,0.015932
4.496625,-0.012821,-0.021403,0.018023
4.506666,-0.016026,-0.024601,0.019067
4.516675,0.004246,-0.015041,0.015964
4.526716,-0.024554,-0.024569,0.017976
4.546766,-0.000040,-0.024648,0.018043
4.556806,-0.024558,-0.026710,0.019034
4.566816,0.008505,-0.017195,0.017034
4.576856,-0.011736,-0.016082,0.021256
4.586866,-0.011774,-0.027809,0.016927
4.586866,-0.011774,-0.027809,0.016927
4.606946,-0.025597,-0.017095,0.019076
4.626996,-0.009619,-0.019272,0.016974
4.626996,-0.009619,-0.019272,0.016974
4.637006,-0.033064,-0.019206,0.019046
4.657056,-0.009604,-0.015011,0.019130
4.657056,-0.009604,-0.015011,0.019130
4.677137,-0.000035,-0.021434,0.015922
4.697187,-0.009634,-0.024612,0.016948
4.697187,-0.009634,-0.024612,0.016948
4.707197,0.003170,-0.020392,0.019140
4.727247,-0.006425,-0.021429,0.019109
4.737287,-0.006425,-0.022495,0.020166
4.737287,-0.008558,-0.022495,0.020166
4.747297,-0.001078,-0.015039,0.019154
4.767377,-0.017073,-0.020347,0.023357
4.767377,-0.017073,-0.020347,0.023357
4.777387,-0.008536,-0.012868,0.017007
4.787427,-0.005374,-0.025694,0.016955
4.797437,-0.019177,-0.008577,0.020202
4.807477,-0.005368,-0.023558,0.016965
4.827527,-0.019191,-0.011766,0.016983
4.847592,-0.013884,-0.020332,0.018025
4.847592,-0.013884,-0.020332,0.018025
4.857633,-0.022403,-0.017095,0.016949
4.867643,-0.005368,-0.023558,0.016965
4.877683,-0.016005,-0.017126,0.019103
4.887693,-0.003238,-0.023560,0.015903
4.897733,-0.010696,-0.022468,0.015887
4.927823,-0.005359,-0.021432,0.019112
4.927823,-0.005359,-0.021432,0.019112
4.937833,-0.019203,-0.016038,0.016962
4.947873,-0.002196,-0.031029,0.013734
4.957883,-0.009609,-0.016074,0.018057
4.967923,-0.011764,-0.023532,0.015879
4.998014,-0.010706,-0.024588,0.012673
4.998014,-0.010706,-0.024588,0.012673
5.008023,-0.004289,-0.018217,0.015925
5.018064,-0.021328,-0.014973,0.019098
5.028073,0.001014,-0.027845,0.015894
5.038114,-0.011741,-0.014989,0.015920
5.048123,-0.020270,-0.016029,0.015891
5.058164,0.003173,-0.018246,0.017014
5.068204,-0.017089,-0.022452,0.016938
5.078214,0.002128,-0.010767,0.017046
5.088254,-0.004312,-0.026760,0.015885
5.098264,-0.017065,-0.013909,0.016978
5.108304,0.006369,-0.019329,0.018086
5.138394,-0.005349,-0.017156,0.018064
5.138394,-0.005349,-0.017156,0.018064
5.148404,-0.011752,-0.020339,0.018031
5.158445,-0.006410,-0.015011,0.017003
5.168454,-0.009632,-0.024617,0.018017
5.178495,-0.013857,-0.010720,0.018071
5.208554,-0.025599,-0.017090,0.018008
5.208554,-0.025599,-0.017090,0.018008
5.218595,0.004246,-0.016119,0.018095
5.228635,-0.014948,-0.019255,0.016959
5.238645,-0.020289,-0.022432,0.014793
5.248685,-0.001087,-0.016086,0.014876
5.268735,0.002076,-0.027839,0.013761
5.268735,0.002076,-0.027839,0.013761
5.278745,-0.002143,-0.012884,0.015956
5.288785,-0.032022,-0.026675,0.016877
5.298825,-0.002165,-0.021433,0.016984
5.308835,-0.008549,-0.018213,0.018050
5.318875,-0.022453,-0.034172,0.014731
5.348935,-0.010693,-0.020322,0.013761
5.348935,-0.010693,-0.020322,0.013761
5.358976,-0.008566,-0.021392,0.012694
5.368985,-0.022405,-0.016012,0.013749
5.379026,-0.007481,-0.016071,0.015927
5.389066,-0.019206,-0.016027,0.014826
5.419126,-0.027737,-0.017063,0.013729
5.419126,-0.027737,-0.017063,0.013729
5.429166,0.002110,-0.015019,0.012753
5.439176,-0.013886,-0.019249,0.014826
5.449216,-0.024575,-0.028810,0.011546
5.459256,-0.002152,-0.012854,0.009547
5.479306,0.002092,-0.021426,0.012723
5.479306,0.002092,-0.021426,0.012723
5.489316,-0.009624,-0.018179,0.011638
5.499356,-0.021381,-0.028810,0.009419
5.509366,0.003172,-0.015012,0.010620
5.519406,-0.018162,-0.023501,0.013725
5.529447,-0.005373,-0.022465,0.011629
5.559507,-0.008568,-0.020308,0.009494
5.559507,-0.008568,-0.020308,0.009494
5.569547,-0.009623,-0.017106,0.010575
5.579557,-0.007518,-0.026725,0.010535
5.589597,-0.003244,-0.019233,0.004173
5.599607,-0.019221,-0.019211,0.010538
5.619687,-0.009638,-0.021368,0.008418
5.619687,-0.009638,-0.021368,0.008418
5.629697,-0.020296,-0.020255,0.006257
5.639737,-0.005376,-0.021377,0.007362
5.649747,-0.021350,-0.018136,0.010537
5.659787,-0.008570,-0.018147,0.004163
5.669797,-0.003246,-0.022457,0.008431
5.699887,-0.020285,-0.019213,0.011603
5.699887,-0.020285,-0.019213,0.011603
5.709928,0.001013,-0.024611,0.009500
5.719937,0.011703,-0.012899,0.009585
5.729978,-0.026724,-0.035211,0.011510
5.739988,0.014906,-0.010773,0.009604
5.770078,0.011722,-0.006496,0.010684
5.770078,0.011722,-0.006496,0.010684
5.780118,-0.019261,-0.032011,0.007273
5.790128,-0.014950,-0.017094,0.011628
5.800168,-0.013881,-0.012800,0.006310
5.810178,0.002070,-0.027819,0.009488
5.830228,-0.018189,-0.026649,0.001960
5.830228,-0.018189,-0.026649,0.001960
5.840271,0.003185,-0.009667,0.009577
5.850312,-0.038419,-0.022337,0.007266
5.860321,0.002072,-0.025673,0.007362
5.870362,-0.010688,-0.016030,0.009509
5.880371,-0.016036,-0.021337,0.006264
5.900421,-0.012815,-0.012804,0.006313
5.900421,-0.012815,-0.012804,0.006313
5.910462,-0.013904,-0.021344,0.006270
5.920502,-0.005380,-0.024596,0.010551
5.930512,-0.016025,-0.015987,0.004153
5.940552,-0.012835,-0.021357,0.008409
5.950562,-0.011760,-0.016006,0.005233
5.970612,-0.030942,-0.015949,0.006248
5.970612,-0.030942,-0.015949,0.006248
5.980652,-0.011798,-0.028811,0.003036
5.990662,0.002124,-0.007523,0.008516
6.000702,-0.032032,-0.024489,0.006205
6.010742,-0.012846,-0.024556,0.007326
6.020752,-0.010678,-0.010675,0.006329
6.040802,-0.008564,-0.017090,0.006305
6.050843,-0.012837,-0.021352,0.007341
6.060852,-0.011770,-0.019205,0.004149
6.070893,-0.008562,-0.017095,0.007373
6.080933,-0.019233,-0.021327,0.006255
6.090943,-0.019236,-0.022395,0.006250
6.110993,-0.027763,-0.022367,0.006227
6.121033,-0.013904,-0.022422,0.008401
6.131043,-0.001101,-0.017119,0.007393
6.141083,-0.021368,-0.021310,0.004113
6.151123,-0.000040,-0.019263,0.008454
6.161133,-0.020302,-0.024547,0.010510
6.171173,-0.008571,-0.020298,0.007358
6.181183,-0.012831,-0.018139,0.005220
6.191223,-0.011775,-0.020268,0.003076
6.201233,-0.005363,-0.016032,0.006319
6.211273,-0.025631,-0.021296,0.004101
6.221283,-0.007501,-0.019239,0.008434
6.231324,-0.007504,-0.019229,0.006298
6.241364,-0.010688,-0.012796,0.003115
6.251374,-0.013931,-0.028799,0.001962
6.261414,-0.013892,-0.014921,0.003096
6.271424,0.002094,-0.016046,0.004203
6.281464,-0.026712,-0.026632,0.004073
6.291474,-0.005380,-0.020288,0.003094
6.301514,-0.006440,-0.019227,0.005232
6.331604,-0.022446,-0.024500,0.001958
6.331604,-0.022446,-0.024500,0.001958
6.341614,-0.019250,-0.023427,-0.001232
6.351654,0.009550,-0.018211,0.005281
6.361664,-0.029900,-0.020189,-0.001246
6.371704,-0.017148,-0.034113,-0.001277
6.391754,-0.016070,-0.030923,0.000878
6.391754,-0.016070,-0.030923,0.000878
6.401795,-0.022433,-0.020233,0.003047
6.411804,-0.009665,-0.027745,0.001978
6.421845,-0.003229,-0.013893,0.004198
6.431855,-0.015005,-0.029848,-0.001251
6.441895,-0.012879,-0.031991,-0.001255
6.471985,0.007440,-0.011807,0.007442
6.471985,0.007440,-0.011807,0.007442
6.481995,-0.010726,-0.027757,0.005180
6.492035,-0.008610,-0.029869,-0.001233
6.502045,0.001021,-0.017095,0.000990
6.512085,-0.003254,-0.022431,0.003090
6.532135,-0.014982,-0.025612,0.006247
6.532135,-0.014982,-0.025612,0.006247
6.542176,-0.010698,-0.017072,0.004163
6.552185,-0.006428,-0.012799,0.000990
6.562226,-0.012850,-0.021312,-0.001205
6.572235,-0.004297,-0.012806,0.000996
6.582276,-0.030957,-0.020210,0.004092
6.602326,0.005314,-0.008586,0.005315
6.612335,-0.020310,-0.022366,0.000906
6.622376,-0.008582,-0.020263,-0.000120
6.632416,-0.014975,-0.019169,-0.001200
6.642426,-0.016065,-0.025553,-0.005506
6.652466,0.004226,-0.016053,0.004209
6.662476,-0.024572,-0.020201,-0.002300
6.672516,-0.004319,-0.019199,-0.002239
6.682526,-0.022439,-0.020213,-0.001226
6.692566,-0.010750,-0.029837,-0.006580
6.702606,-0.008585,-0.019175,-0.004387
6.712616,-0.030968,-0.018024,-0.006580
6.722657,-0.002204,-0.024540,-0.003327
6.742707,-0.027780,-0.023389,-0.003392
6.742707,-0.027780,-0.023389,-0.003392
6.752716,-0.004326,-0.022408,-0.001186
6.762757,0.002086,-0.013865,-0.005401
6.772797,-0.010729,-0.023440,-0.004413
6.782807,-0.024553,-0.013798,-0.001201
6.792847,-0.007524,-0.022397,-0.001195
6.812897,-0.030979,-0.023374,-0.004469
6.822907,-0.002168,-0.012803,-0.001135
6.832947,-0.011763,-0.014918,0.000965
6.842994,-0.017134,-0.027696,-0.003383
6.853034,-0.003231,-0.012810,0.000999
6.863074,-0.022446,-0.023422,-0.000173
6.883124,-0.007506,-0.015990,-0.001165
6.893134,-0.009649,-0.020254,-0.001191
6.903174,-0.021387,-0.027712,0.003014
6.913184,-0.020305,-0.018074,-0.003346
6.923225,-0.000058,-0.019208,-0.003296
6.933265,-0.012851,-0.023463,0.001990
6.963325,-0.024601,-0.031958,-0.000219
6.973365,-0.004310,-0.012766,-0.007550
6.983375,-0.000075,-0.025615,-0.003326
6.993415,-0.024583,-0.020165,-0.009777
7.003425,-0.000079,-0.027756,-0.002268
7.023505,-0.004324,-0.023491,0.002013
7.033515,-0.007514,-0.017042,-0.004374
7.043555,-0.010743,-0.028779,-0.004439
7.053565,-0.012816,-0.009570,-0.000081
7.063605,-0.017154,-0.035171,-0.003418
7.073615,-0.004318,-0.017048,-0.005434
7.093696,-0.006481,-0.030944,-0.001233
7.103705,-0.001100,-0.011739,-0.001127
7.113746,-0.008613,-0.030937,-0.001238
7.123756,-0.017140,-0.028753,-0.005524
7.133796,-0.003264,-0.022401,-0.003320
7.143806,-0.010741,-0.027711,-0.004434
7.163886,0.002068,-0.021350,-0.003300
7.173896,-0.012855,-0.024526,0.000917
7.183936,-0.020332,-0.030914,0.001934
7.193946,-0.002180,-0.017075,-0.001155
7.203986,-0.007539,-0.029888,0.001974
7.213996,-0.005407,-0.027744,-0.001214
7.254127,-0.013898,-0.013823,-0.003308
7.264136,-0.016056,-0.024505,-0.001229
7.274177,-0.016047,-0.020224,-0.003345
7.284186,-0.013892,-0.011687,-0.003298
7.294227,-0.026733,-0.030873,-0.002356
7.304236,-0.011746,-0.006354,-0.003267
7.314277,-0.019240,-0.019150,-0.002280
7.324317,-0.020336,-0.026592,-0.008728
7.334327,-0.011767,-0.012752,-0.005434
7.344367,-0.014986,-0.021290,-0.004415
7.354377,-0.017115,-0.019137,-0.006547
7.374427,-0.010695,-0.010619,-0.005421
7.384467,-0.016075,-0.030908,-0.002327
7.394507,-0.000050,-0.015999,-0.004349
7.404517,-0.004299,-0.011723,-0.002204
7.414558,-0.018188,-0.023420,-0.003366
7.424567,-0.020296,-0.012714,-0.007594
7.454658,-0.008568,-0.012767,-0.004357
7.454658,-0.008568,-0.012767,-0.004357
7.464667,-0.022422,-0.011649,-0.005458
7.474708,-0.011818,-0.031980,-0.004457
7.484748,-0.011758,-0.010626,-0.003287
7.494758,-0.013941,-0.029847,-0.002316
7.514808,-0.011774,-0.018117,-0.000118
7.524848,-0.004336,-0.023455,-0.005464
7.534858,-0.012851,-0.022385,-0.000141
7.544898,-0.019269,-0.027678,-0.005525
7.554938,-0.008564,-0.013855,-0.000089
7.564948,-0.016062,-0.024485,-0.005501
7.595038,-0.003252,-0.017051,-0.005431
7.595038,-0.003252,-0.017051,-0.005431
7.605048,-0.013924,-0.024512,-0.001223
7.615089,-0.025640,-0.020192,-0.003371
7.625098,-0.001112,-0.014932,-0.003278
7.635139,-0.002200,-0.021321,-0.006516
7.655189,-0.026718,-0.022305,-0.007657
7.665229,0.001005,-0.023508,0.002028
7.675239,-0.010705,-0.017052,-0.000110
7.685279,-0.009673,-0.027720,-0.003363
7.695289,-0.004324,-0.019184,-0.005444
7.705329,-0.020331,-0.028763,-0.001260
7.725379,0.009533,-0.019234,-0.004337
7.735419,-0.013934,-0.028789,-0.000175
7.745429,-0.005419,-0.029859,-0.005497
7.755469,-0.002197,-0.025639,0.003077
7.765479,-0.018202,-0.028760,-0.003391
7.775519,0.015906,-0.028881,-0.001161
7.805610,-0.007522,-0.024558,0.004136
7.815620,-0.004309,-0.014922,-0.003287
7.825660,-0.005377,-0.017064,-0.001164
7.835670,-0.018188,-0.024498,-0.001234
7.845751,-0.022411,-0.010607,-0.000112
7.865801,-0.001115,-0.014922,-0.005415
7.875841,-0.017095,-0.015969,0.000945
7.885851,-0.032027,-0.019119,-0.000179
7.895891,-0.009628,-0.009550,-0.006481
7.905901,-0.006459,-0.023474,-0.000129
7.915941,-0.010683,-0.008504,-0.001138
7.935991,-0.026720,-0.026607,-0.001268
7.946032,-0.002181,-0.020304,0.004171
7.956041,0.005289,-0.013895,-0.001119
7.966082,-0.014977,-0.024549,0.007320
7.976091,-0.025648,-0.025552,0.000876
7.986132,0.000984,-0.030983,0.001993
8.016192,-0.014981,-0.024539,0.005184
8.026232,-0.037364,-0.022305,-0.000209
8.036272,-0.003239,-0.017092,0.003115
8.046282,-0.027739,-0.012745,0.004136
8.056322,-0.021372,-0.020221,-0.000155
8.076372,-0.039515,-0.027623,-0.003445
8.086382,-0.013882,-0.009566,-0.000084
8.096422,-0.012829,-0.015993,0.003094
8.106463,-0.024574,-0.021274,-0.001237
8.116472,-0.013931,-0.028799,0.001962
8.126513,-0.016010,-0.008491,-0.000084
8.146563,-0.020290,-0.014890,0.000942
8.156572,0.006312,-0.032074,0.003070
8.166613,-0.027771,-0.022342,0.000886
8.176653,-0.017130,-0.029862,0.003016
8.186663,-0.002180,-0.018153,0.000976
8.196703,-0.007527,-0.026694,0.004126
8.226763,-0.005369,-0.017090,0.004177
8.236803,-0.018184,-0.025587,0.003033
8.246813,-0.013930,-0.026648,-0.001233
8.256853,-0.007506,-0.021375,0.008424
8.266893,-0.033119,-0.029805,0.001904
8.296953,-0.025636,-0.022359,0.003028
8.306994,-0.010751,-0.036295,0.004071
8.317003,-0.009612,-0.011757,0.008464
8.317003,-0.009612,-0.011757,0.008464
8.337084,0.003147,-0.022472,0.007380
8.347094,-0.001113,-0.020312,0.005242
8.357134,-0.017135,-0.034154,0.007269
8.367144,0.000997,-0.029946,0.008407
8.377184,-0.003231,-0.017117,0.008456
8.387194,-0.009673,-0.034183,0.008357
8.387194,-0.009673,-0.034183,0.008357
8.397234,-0.008580,-0.022424,0.005211
8.407274,-0.004309,-0.021385,0.008433
8.437334,-0.016023,-0.015992,0.005221
8.437334,-0.016023,-0.015992,0.005221
8.447374,-0.034171,-0.026613,0.005121
8.457384,-0.016017,-0.013856,0.005231
8.477434,-0.022415,-0.014904,0.005209
8.487475,-0.009642,-0.019202,0.002019
8.487475,-0.009642,-0.019202,0.002019
8.497515,-0.027751,-0.015939,0.001984
8.507525,-0.004327,-0.026715,0.006271
8.517565,-0.009617,-0.010663,0.003128
8.527575,-0.002199,-0.031019,0.011598
8.537615,-0.025614,-0.014888,0.004132
8.547625,0.006353,-0.019279,0.007404
8.577715,-0.009599,-0.004256,0.003158
8.577715,-0.009599,-0.004256,0.003158
8.587755,-0.025633,-0.022369,0.005164
8.597765,-0.028822,-0.016998,0.000908
8.607805,-0.014959,-0.015991,0.004156
8.617815,-0.035226,-0.022332,0.004070
8.637865,-0.033076,-0.014859,0.003043
8.647905,-0.018203,-0.034145,0.006197
8.657946,-0.013871,-0.008524,0.005262
8.667955,-0.023537,-0.037342,0.008304
8.677996,-0.010695,-0.017083,0.006299
8.688006,-0.000063,-0.028885,0.010545
8.708056,-0.005391,-0.028872,0.011599
8.718096,-0.001106,-0.018182,0.006320
8.728136,-0.008619,-0.039536,0.010471
8.738146,-0.020327,-0.033086,0.009401
8.748186,-0.005387,-0.025653,0.008409
8.758196,-0.006478,-0.033110,0.005167
8.778246,-0.035229,-0.023400,0.004065
8.788286,-0.021413,-0.039479,0.007232
8.798327,-0.024547,-0.017048,0.008397
8.808336,-0.018205,-0.033062,0.002998
8.818377,-0.026710,-0.026637,0.005141
8.828386,-0.019261,-0.032011,0.007273
8.838442,-0.022437,-0.022374,0.004105
8.848451,0.000982,-0.034208,0.006250
8.858492,-0.017100,-0.021339,0.007329
8.868501,-0.010764,-0.043796,0.009377
8.878542,-0.000042,-0.019258,0.007386
8.888582,0.014824,-0.041753,0.011594
8.898592,-0.013913,-0.026704,0.010517
8.918642,-0.003250,-0.024597,0.009489
8.918642,-0.003250,-0.024597,0.009489
8.928682,0.006294,-0.042788,0.010497
8.938692,-0.020293,-0.019187,0.006262
8.948732,-0.002217,-0.036348,0.009436
8.958772,-0.011773,-0.022429,0.008407
8.968782,-0.008595,-0.030993,0.010512
8.998873,-0.014960,-0.018142,0.007350
8.998873,-0.014960,-0.018142,0.007350
9.008882,-0.016053,-0.029901,0.010496
9.018923,-0.036309,-0.030893,0.008299
9.028932,-0.011823,-0.039506,0.006190
9.038973,-0.007501,-0.018161,0.006303
9.069063,-0.001111,-0.023552,0.012704
9.069063,-0.001111,-0.023552,0.012704
9.079073,-0.018227,-0.045918,0.011483
9.089113,0.003134,-0.026739,0.006291
9.099123,-0.000063,-0.029963,0.012677
9.109163,-0.013945,-0.037373,0.008330
9.139253,-0.020324,-0.032018,0.009406
9.139253,-0.020324,-0.032018,0.009406
9.149263,0.002052,-0.032070,0.005195
9.159303,-0.014968,-0.023502,0.011598
9.169313,-0.038472,-0.040482,0.005043
9.179354,-0.002204,-0.029925,0.006262
9.209444,-0.013923,-0.028824,0.007303
9.209444,-0.013923,-0.028824,0.007303
9.219454,0.006355,-0.021440,0.012735
9.229494,-0.037399,-0.038355,0.006124
9.239504,0.008431,-0.041738,0.012644
9.249544,-0.006432,-0.018174,0.008442
9.279634,-0.012894,-0.042716,0.008308
9.279634,-0.012894,-0.042716,0.008308
9.289644,-0.021397,-0.033067,0.006194
9.299684,-0.008615,-0.036317,0.007282
9.309694,-0.027790,-0.033051,0.007244
9.319734,-0.011840,-0.046991,0.008291
9.339784,-0.005441,-0.044871,0.007250
9.339784,-0.005441,-0.044871,0.007250
9.349825,-0.000069,-0.029942,0.008404
9.359834,-0.028889,-0.043717,0.005054
9.369875,-0.020356,-0.042687,0.007219
9.379885,0.002065,-0.027803,0.006283
9.389925,-0.016085,-0.041648,0.010441
9.419985,-0.004357,-0.040623,0.011546
9.430025,0.009513,-0.035328,0.011610
9.440065,0.002055,-0.033158,0.009463
9.450075,-0.009699,-0.045950,0.012574
9.460115,0.003125,-0.032099,0.010539
9.470125,0.012722,-0.032145,0.013770
9.480165,-0.014991,-0.032045,0.011557
9.490175,0.002048,-0.037445,0.012647
9.500215,-0.011776,-0.025648,0.011596
9.510256,-0.021398,-0.034140,0.007257
9.520265,-0.003264,-0.028864,0.008400
9.530306,0.004218,-0.023569,0.012719
9.550356,-0.002224,-0.038479,0.008358
9.560365,-0.018149,-0.017079,0.010551
9.570406,-0.012880,-0.035220,0.004071
9.580446,0.003145,-0.025696,0.011637
9.590456,-0.011784,-0.025623,0.006255
9.600496,-0.007559,-0.042754,0.012595
9.620546,0.009530,-0.027843,0.009509
9.630556,-0.017134,-0.034159,0.008337
9.640596,0.002054,-0.033153,0.008395
9.650606,-0.000047,-0.022472,0.009507
9.660646,-0.019284,-0.042710,0.011495
9.670687,-0.001131,-0.027798,0.007343
9.700746,-0.009670,-0.032037,0.006231
9.710787,-0.000044,-0.020326,0.007381
9.720796,-0.008622,-0.038448,0.006204
9.730837,-0.021366,-0.023471,0.009444
9.740877,-0.007543,-0.034185,0.007295
9.760927,-0.011784,-0.025623,0.006255
9.770937,-0.021424,-0.045907,0.011474
9.780977,-0.018175,-0.024539,0.007311
9.790987,-0.001157,-0.036331,0.005166
9.801027,-0.005395,-0.029935,0.010526
9.811067,-0.012872,-0.034168,0.007280
9.831117,-0.010735,-0.030961,0.005165
9.841149,-0.004341,-0.032054,0.006246
9.851189,-0.003278,-0.034204,0.008375
9.861199,-0.025642,-0.029880,0.012606
9.871240,-0.001165,-0.039540,0.006219
9.881249,0.003136,-0.027822,0.009491
9.911340,-0.008607,-0.036343,0.012623
9.921380,0.003117,-0.036381,0.012655
9.931390,-0.000057,-0.026749,0.010555
9.941430,0.016967,-0.039640,0.014814
9.951440,-0.007513,-0.025662,0.011608
9.981530,0.001014,-0.023538,0.008437
9.981530,0.001014,-0.023538,0.008437
9.991570,-0.009650,-0.025640,0.008398
10.001580,-0.013948,-0.038441,0.008325
10.011620,-0.024559,-0.021319,0.008377
10.021630,-0.003274,-0.030985,0.005185
10.041680,-0.018192,-0.030946,0.007281
10.051721,-0.008611,-0.034176,0.006224
10.061761,-0.002186,-0.023518,0.006292
10.071771,0.002083,-0.023552,0.010576
10.081811,-0.016047,-0.026687,0.008375
10.091821,-0.001147,-0.034211,0.008381
10.121911,-0.005362,-0.016037,0.007387
10.131951,-0.010727,-0.029908,0.008375
10.141961,-0.017119,-0.027741,0.006231
10.152001,-0.009631,-0.017081,0.005234
10.162011,-0.005381,-0.023518,0.008420
10.182061,-0.022436,-0.024530,0.008368
10.192101,0.002065,-0.027803,0.006283
10.202142,-0.016018,-0.014929,0.006294
10.212151,-0.007522,-0.024558,0.004136
10.222192,-0.012844,-0.023483,0.006263
10.232201,-0.008585,-0.025638,0.007332
10.252252,0.001004,-0.026737,0.007354
10.262292,-0.025611,-0.014898,0.006268
10.272302,-0.006482,-0.035251,0.006225
10.282342,-0.006442,-0.021373,0.007359
10.292382,-0.014975,-0.021325,0.003062
10.302392,0.000989,-0.030999,0.005197
10.332482,-0.004333,-0.026694,0.001998
10.332482,-0.004333,-0.026694,0.001998
10.342492,0.001033,-0.013902,0.003142
10.352532,-0.005409,-0.032046,0.005175
10.362573,-0.009661,-0.024526,-0.001211
10.372582,0.010628,-0.015021,0.007436
10.412682,-0.015009,-0.033067,0.001939
10.422723,0.008498,-0.013941,0.006367
10.432732,0.003144,-0.021384,0.003112
10.442773,-0.017161,-0.040536,0.001897
10.462823,-0.001114,-0.019234,0.003111
10.472863,-0.011801,-0.028801,0.000899
10.482873,-0.010736,-0.032034,0.006228
10.492913,-0.007542,-0.033112,0.006232
10.502923,-0.000077,-0.030995,0.005194
10.512963,-0.003262,-0.024562,0.002011
10.533013,-0.007551,-0.036316,0.006217
10.543054,-0.019232,-0.019176,0.003061
10.553063,0.006327,-0.028890,0.007358
10.563104,-0.011785,-0.024544,0.004124
10.573113,-0.002182,-0.021377,0.005234
10.583154,-0.016067,-0.033089,0.007277
10.603204,-0.004324,-0.023491,0.002013
10.603204,-0.004324,-0.023491,0.002013
10.613244,-0.009637,-0.018139,0.003092
10.623254,-0.012858,-0.027750,0.005174
10.633294,-0.006446,-0.020285,0.003091
10.643304,-0.005370,-0.016012,0.002046
10.653344,-0.010737,-0.027721,-0.002297
10.683434,0.006301,-0.034194,-0.000144
10.693444,-0.010712,-0.020261,0.000943
10.703484,-0.023538,-0.035186,0.004041
10.713494,-0.010740,-0.029867,-0.000171
10.723534,0.001038,-0.009610,-0.001111
10.743585,-0.012886,-0.036278,0.001929
10.743585,-0.012886,-0.036278,0.001929
10.753625,-0.012823,-0.013857,0.003104
10.763635,-0.011806,-0.027708,-0.004437
10.773675,0.002057,-0.027778,0.000942
10.783685,-0.009639,-0.015978,-0.002239
10.793725,-0.009662,-0.025599,-0.000148
10.813775,-0.012839,-0.019191,0.002010
10.823815,0.001007,-0.021362,-0.000098
10.833825,-0.006432,-0.012789,-0.001146
10.843888,-0.009678,-0.032012,0.000890
10.853898,-0.009635,-0.015993,0.000966
10.863938,0.007414,-0.019267,0.004202
10.893998,-0.011764,-0.017069,0.004160
10.893998,-0.011764,-0.017069,0.004160
10.904038,-0.007542,-0.030956,0.001969
10.914079,0.006359,-0.016065,0.005283
10.924088,-0.007542,-0.033112,0.006232
10.934129,-0.002182,-0.021377,0.005234
10.954179,-0.002213,-0.033129,0.006246
10.964189,0.007422,-0.018214,0.007412
10.974229,-0.016054,-0.026666,0.004102
10.984269,-0.013957,-0.039489,0.004047
10.994279,-0.011747,-0.009583,0.002059
11.004319,-0.007545,-0.032024,0.001964
11.024369,-0.008582,-0.022419,0.004143
11.034379,-0.023515,-0.024486,-0.000181
11.044419,-0.008575,-0.015976,-0.003304
11.054429,-0.008559,-0.011720,-0.000079
11.064469,-0.022458,-0.028771,0.001938
11.074510,-0.014959,-0.014913,0.002025
11.104569,-0.014957,-0.014918,0.003093
11.114610,-0.005398,-0.025618,0.000932
11.124619,0.001007,-0.022440,0.002033
11.134660,-0.004305,-0.017088,0.003112
11.144700,0.001022,-0.017100,0.002058
11.164750,-0.005373,-0.017080,0.002041
11.174760,-0.008585,-0.022409,0.002007
11.184800,-0.012844,-0.020254,0.000937
11.194810,-0.007506,-0.015990,-0.001165
11.204850,-0.002168,-0.013881,0.000997
11.214890,-0.010693,-0.018166,0.009498
11.234941,-0.008577,-0.021356,0.005216
11.244950,0.009568,-0.011804,0.005312
11.254991,-0.018186,-0.025582,0.001965
11.265000,-0.004340,-0.029903,0.003051
11.275041,0.005309,-0.009649,0.004242
11.285050,-0.016060,-0.028802,0.004092
11.305131,0.003161,-0.014977,0.003143
11.315141,-0.002170,-0.017105,0.005254
11.325181,-0.009647,-0.019186,-0.001186
11.335191,-0.000058,-0.023515,0.004161
11.345231,-0.009641,-0.021358,0.006282
11.355241,0.012749,-0.016071,0.002096
11.385331,0.002075,-0.021371,0.000973
11.395371,0.024495,-0.009716,0.005363
11.405381,-0.007542,-0.030956,0.001969
11.415421,-0.000086,-0.033121,0.003048
11.425431,0.017042,-0.006483,0.004289
11.445481,-0.027825,-0.042637,0.001858
11.455522,0.019139,-0.018232,0.003171
11.465562,0.004240,-0.010713,0.004234
11.475572,-0.011831,-0.039480,0.000849
11.485612,-0.005399,-0.026691,0.001995
11.495622,-0.010731,-0.027742,0.001976
11.515672,0.012747,-0.016066,0.001027
11.525712,-0.017159,-0.041619,0.005097
11.535752,-0.016089,-0.038404,0.001910
11.545762,0.029814,-0.012932,0.004294
11.555802,0.010635,-0.011812,0.006383
11.565812,-0.010773,-0.044844,0.005099
11.595902,-0.000064,-0.024572,0.002020
11.605943,-0.001124,-0.024589,0.006290
11.615952,-0.000039,-0.017112,0.005260
11.625993,-0.010710,-0.020266,0.002011
11.636003,-0.008580,-0.022424,0.005211
11.646043,0.003171,-0.010700,0.002095
11.656053,-0.003244,-0.019233,0.004173
11.666093,-0.019225,-0.014889,-0.000124
11.676103,-0.008569,-0.015996,0.000969
11.686143,-0.020287,-0.017051,0.006273
11.696183,-0.000037,-0.012810,-0.001129
11.706193,-0.006433,-0.013862,-0.000083
11.736283,0.007415,-0.017116,0.001008
11.746293,-0.013918,-0.025611,0.005181
11.756333,-0.003274,-0.027756,-0.000140
11.766374,0.013822,-0.013943,0.003177
11.776383,-0.003275,-0.029907,0.003054
11.796433,0.006337,-0.024613,0.006310
11.806474,0.002075,-0.022449,0.003104
11.816483,0.021262,-0.022521,0.005293
11.826524,-0.013893,-0.017072,0.006290
11.836534,-0.012895,-0.039482,0.001914
11.846605,0.011682,-0.017140,0.003156
11.866655,-0.019233,-0.021327,0.006255
11.866655,-0.019233,-0.021327,0.006255
11.886705,0.004242,-0.010718,0.005302
11.896745,-0.010680,-0.009592,0.003130
11.906755,-0.005380,-0.020288,0.003094
11.916795,-0.005359,-0.013891,0.005261
11.946886,-0.008575,-0.018132,0.000959
11.956895,-0.006433,-0.014940,0.002048
11.966936,-0.016064,-0.028787,0.000888
11.976945,-0.019253,-0.026651,0.003025
11.986986,-0.000051,-0.020306,0.003108
12.007036,-0.009676,-0.030944,0.000895
12.017076,0.012748,-0.019300,0.007421
12.027086,0.011669,-0.023563,0.006330
12.037126,0.000998,-0.027795,0.005212
12.037126,0.000998,-0.027795,0.005212
12.057176,0.010597,-0.025695,0.006317
12.077226,0.007415,-0.022501,0.010596
12.077226,0.007415,-0.022501,0.010596
12.087266,-0.004327,-0.026715,0.006271
12.097276,-0.000067,-0.025640,0.002015
12.107316,0.018116,-0.002205,0.002176
12.117326,-0.001064,-0.002158,0.005328
12.127367,-0.036310,-0.027659,0.001905
12.167467,-0.003230,-0.014966,0.005261
12.167467,-0.003230,-0.014966,0.005261
12.177507,-0.021388,-0.025556,-0.001248
12.187517,0.006350,-0.018191,0.003136
12.197557,0.011715,-0.004320,0.002148
12.227617,0.010652,-0.001092,-0.002112
12.227617,0.010652,-0.001092,-0.002112
12.237657,-0.017076,-0.010644,0.004175
12.247697,-0.038466,-0.037268,0.002922
12.257707,0.002064,-0.024569,-0.000111
12.267747,0.027696,-0.005430,0.000051
12.297807,-0.003246,-0.018149,0.000973
12.297807,-0.003246,-0.018149,0.000973
12.307847,-0.009646,-0.020265,0.000946
12.327898,-0.008574,-0.019210,0.003090
12.327898,-0.008574,-0.019210,0.003090
12.337938,-0.035273,-0.039419,0.003989
12.378038,-0.038478,-0.040462,0.000770
12.378038,-0.038478,-0.040462,0.000770
12.388078,0.004218,-0.016028,-0.001132
12.398088,0.009618,0.006351,0.005398
12.408128,-0.028859,-0.033038,0.005105
12.438188,0.031988,0.002007,0.005439
12.438188,0.031988,0.002007,0.005439
12.448228,0.011670,-0.021412,0.003136
12.458238,-0.035273,-0.040497,0.006120
12.468278,-0.029956,-0.045864,0.008246
12.478319,0.018090,-0.012894,0.004262
12.508379,-0.006460,-0.026703,0.005197
12.508379,-0.006460,-0.026703,0.005197
12.518419,-0.007549,-0.036321,0.007285
12.528429,-0.011852,-0.048029,0.001876
12.538469,0.020203,-0.017153,-0.000025
12.548509,0.024477,-0.015046,0.003201
12.578569,0.007407,-0.020320,0.000993
12.578569,0.007407,-0.020320,0.000993
12.588609,0.012736,-0.020337,0.001007
12.598619,0.006301,-0.033116,-0.002276
12.608659,-0.010734,-0.028810,0.001970
12.618700,-0.000091,-0.030950,-0.004420
12.658800,0.022305,-0.026761,-0.002201
12.658800,0.022305,-0.026761,-0.002201
12.668809,0.008476,-0.017104,-0.002194
12.678850,0.004116,-0.050176,-0.006635
12.688859,0.021228,-0.029951,-0.004356
12.718950,-0.007591,-0.042652,-0.008768
12.718950,-0.007591,-0.042652,-0.008768
12.728990,0.027671,-0.011812,-0.005320
12.739000,0.017008,-0.012840,-0.006423
12.749040,-0.019315,-0.041536,-0.010932
12.759050,-0.009703,-0.035165,-0.009807
12.779130,0.017018,-0.006407,-0.011734
12.779130,0.017018,-0.006407,-0.011734
12.789140,-0.007559,-0.027671,-0.015107
12.799181,-0.021461,-0.045791,-0.013094
12.809190,0.018070,-0.011755,-0.010688
12.819231,0.011647,-0.019185,-0.016082
12.829240,-0.013992,-0.040455,-0.017321
12.859355,-0.004361,-0.024452,-0.020424
12.859355,-0.004361,-0.024452,-0.020424
12.869395,-0.009697,-0.029800,-0.015123
12.879405,-0.019298,-0.031895,-0.017296
12.889445,-0.000143,-0.041558,-0.019425
12.899455,0.007413,-0.006336,-0.020306
12.919505,-0.016105,-0.032968,-0.018360
12.919505,-0.016105,-0.032968,-0.018360
12.929545,-0.000099,-0.025539,-0.019349
12.939585,0.005233,-0.024489,-0.019329
12.949595,0.004160,-0.027694,-0.018279
12.959635,0.007378,-0.021307,-0.016104
12.969645,-0.001157,-0.024483,-0.016142
12.979685,-0.003333,-0.039417,-0.018355
12.989695,0.018063,-0.009579,-0.019223
12.999736,0.011675,-0.010657,-0.012837
13.009776,-0.025714,-0.041500,-0.014154
13.019786,-0.008605,-0.018036,-0.019337
13.029826,0.031927,-0.008571,-0.015976
13.039836,-0.013954,-0.027650,-0.015124
13.059886,0.016973,-0.021348,-0.013941
13.059886,0.016973,-0.021348,-0.013941
13.069926,0.027649,-0.013897,-0.016013
13.079936,0.011649,-0.020268,-0.012882
13.089976,-0.006522,-0.039432,-0.013023
13.100016,-0.008632,-0.030876,-0.014057
13.110026,0.028704,-0.018177,-0.014962
13.150126,0.018041,-0.022435,-0.010738
13.150126,0.018041,-0.022435,-0.010738
13.160166,-0.002243,-0.033033,-0.014049
13.170207,0.016968,-0.023484,-0.013951
13.180216,0.020134,-0.035247,-0.012930
13.210307,0.012667,-0.038431,-0.011897
13.210307,0.012667,-0.038431,-0.011897
13.220317,0.018007,-0.035255,-0.009731
13.230357,0.032976,-0.018217,-0.009609
13.240367,0.024399,-0.034188,-0.013981
13.250407,0.030820,-0.025675,-0.011787
13.280497,0.013792,-0.016003,-0.012856
13.280497,0.013792,-0.016003,-0.012856
13.290507,0.006314,-0.022387,-0.012907
13.300547,0.011635,-0.026686,-0.010776
13.310557,0.019129,-0.010661,-0.017089
13.320597,0.006318,-0.020246,-0.013965
13.350688,0.022323,-0.012812,-0.016022
13.360697,-0.005414,-0.022333,-0.016144
13.370738,-0.002221,-0.025563,-0.012946
13.380747,0.008433,-0.028816,-0.009727
13.390788,0.010592,-0.017061,-0.012870
13.420878,0.005232,-0.027718,-0.014003
13.420878,0.005232,-0.027718,-0.014003
13.430888,0.006299,-0.027726,-0.012932
13.440928,0.008466,-0.015996,-0.010734
13.450938,0.007370,-0.026667,-0.011856
13.460978,0.002042,-0.025576,-0.012934
13.491069,-0.013955,-0.029801,-0.011930
13.491069,-0.013955,-0.029801,-0.011930
13.501078,-0.004339,-0.021289,-0.011863
13.511119,0.012724,-0.017068,-0.012864
13.521128,-0.021402,-0.024432,-0.012993
13.531169,-0.012873,-0.024470,-0.010833
13.551219,-0.009683,-0.026611,-0.011903
13.561259,-0.006475,-0.022345,-0.012942
13.571269,0.002030,-0.029848,-0.012954
13.581309,-0.012880,-0.027679,-0.009780
13.591319,0.000976,-0.025573,-0.012937
13.601359,-0.002218,-0.024495,-0.012941
13.631419,-0.006481,-0.025559,-0.010821
13.631419,-0.006481,-0.025559,-0.010821
13.641459,-0.009680,-0.027700,-0.007635
13.651499,0.003135,-0.019203,-0.006491
13.661509,0.009509,-0.026699,-0.006509
13.671549,-0.002206,-0.022379,-0.008658
13.701609,0.006327,-0.022427,-0.004361
13.701609,0.006327,-0.022427,-0.004361
13.711650,0.015928,-0.020332,-0.002189
13.721690,0.005271,-0.019225,-0.003281
13.731700,-0.006440,-0.015993,-0.001162
13.741740,-0.007552,-0.029847,-0.006571
13.771800,-0.019252,-0.022344,-0.004432
13.781840,-0.013921,-0.023444,-0.001218
13.791880,-0.005382,-0.018127,-0.002237
13.801890,0.002080,-0.018157,-0.001148
13.811930,-0.003249,-0.018139,-0.001163
13.831980,-0.001111,-0.018166,0.003116
13.831980,-0.001111,-0.018166,0.003116
13.842007,-0.000050,-0.019233,0.002045
13.852047,0.006341,-0.021395,0.003121
13.862057,0.007385,-0.028868,0.002020
13.872097,0.006335,-0.024608,0.005242
13.882138,-0.004326,-0.024564,0.003076
13.912198,-0.014984,-0.024529,0.003047
13.922238,-0.016048,-0.023453,0.001981
13.932248,-0.010717,-0.021324,-0.000130
13.942288,-0.011773,-0.020273,0.004144
13.952328,-0.024588,-0.028770,0.003001
13.972378,-0.007510,-0.020287,0.004156
13.972378,-0.007510,-0.020287,0.004156
13.982388,-0.016047,-0.023458,0.003049
13.992428,-0.009654,-0.022395,-0.000133
14.002438,-0.011794,-0.026670,0.001978
14.012478,-0.032048,-0.027667,0.000849
14.022488,-0.002196,-0.024566,0.002014
14.042569,-0.010727,-0.025601,0.000917
14.052578,-0.012858,-0.025594,0.000912
14.062619,-0.004349,-0.032029,0.000905
14.072628,-0.021359,-0.014877,-0.001198
14.082669,-0.005410,-0.028812,-0.001219
14.092679,-0.007509,-0.018136,0.000962
14.112759,-0.011814,-0.030917,-0.003384
14.112759,-0.011814,-0.030917,-0.003384
14.122769,0.010619,-0.016069,0.003158
14.132809,-0.009623,-0.011721,0.000986
14.142819,-0.027803,-0.034089,0.000830
14.152859,-0.009648,-0.020259,-0.000123
14.162869,-0.000042,-0.012795,-0.004333
14.182950,-0.025620,-0.013790,-0.002272
14.182950,-0.025620,-0.013790,-0.002272
14.192959,-0.038439,-0.025506,-0.000227
14.203000,0.018091,-0.010743,0.001067
14.213009,0.008540,0.003161,0.003243
14.223050,-0.042749,-0.043657,0.001812
14.233059,-0.012851,-0.022385,-0.000141
14.263150,-0.032075,-0.037279,0.000803
14.273190,-0.017132,-0.029857,0.001948
14.283200,-0.003255,-0.023504,0.004153
14.293240,0.002071,-0.024589,0.004162
14.303250,0.007367,-0.035276,0.001990
14.323300,-0.007531,-0.025606,-0.000142
14.323300,-0.007531,-0.025606,-0.000142
14.333340,-0.009669,-0.030964,0.005168
14.343380,-0.016032,-0.018118,0.003075
14.353390,0.001011,-0.023528,0.006301
14.363430,-0.020335,-0.030904,-0.000202
14.373440,-0.011787,-0.023461,0.000925
14.393490,-0.014978,-0.021315,0.000926
14.403531,-0.035210,-0.015920,0.003032
14.413571,-0.015028,-0.039470,0.000840
14.423581,-0.014949,-0.009558,-0.001155
14.433621,-0.011784,-0.021315,-0.001202
14.443631,-0.019240,-0.020228,-0.000149
14.473721,-0.014994,-0.026650,-0.000168
14.473721,-0.014994,-0.026650,-0.000168
14.483731,-0.003243,-0.016003,-0.001153
14.493771,-0.000056,-0.024598,0.007361
14.503811,-0.016066,-0.029860,0.001951
14.513821,0.000997,-0.024561,-0.001182
14.533871,-0.007540,-0.027732,-0.002288
14.533871,-0.007540,-0.027732,-0.002288
14.543911,-0.011811,-0.034156,0.004079
14.553921,-0.012851,-0.023463,0.001990
14.563961,0.009537,-0.020322,-0.000070
14.574002,-0.013921,-0.023444,-0.001218
14.584012,-0.021425,-0.038366,-0.002377
14.604062,0.007420,-0.016053,0.002081
14.614102,-0.009666,-0.028818,0.003042
14.624112,-0.011815,-0.033068,-0.000189
14.634152,0.013800,-0.020336,-0.000058
14.644162,-0.008592,-0.025618,0.003060
14.654202,-0.007544,-0.032029,0.003032
14.674252,-0.005381,-0.020283,0.002026
14.684292,0.007427,-0.012844,0.001028
14.694302,-0.000067,-0.024562,-0.000116
14.704342,-0.027753,-0.018090,0.005179
14.714352,-0.016078,-0.034132,0.001931
14.724392,-0.000038,-0.013883,-0.000066
14.744442,-0.022463,-0.030907,0.001928
14.754483,-0.014988,-0.025592,0.001974
14.764493,0.009544,-0.019269,0.003140
14.774533,0.002084,-0.016016,-0.002206
14.784543,-0.008607,-0.028801,-0.001228
14.794583,-0.008575,-0.018132,0.000959
14.814633,-0.007519,-0.022412,0.002010
14.824673,-0.013914,-0.021314,-0.000139
14.834683,-0.019324,-0.049047,-0.003490
14.844764,0.019126,-0.023577,0.004214
14.854774,0.006390,-0.006469,0.008533
14.864814,-0.023623,-0.063999,-0.000368
14.894905,-0.016101,-0.043753,0.004021
14.904914,-0.024593,-0.031983,0.005122
14.914955,-0.006456,-0.024562,0.004139
14.924964,0.002082,-0.020318,0.004182
14.935005,0.018084,-0.015030,0.004252
14.945014,-0.008595,-0.030993,0.010512
14.955055,-0.016107,-0.045889,0.004011
14.965095,0.021271,-0.018239,0.003177
14.975105,0.025548,-0.015064,0.006409
14.985145,-0.015066,-0.052275,-0.001357
14.995155,0.014872,-0.020359,0.004218
15.005195,0.003147,-0.021394,0.005249
15.035255,0.006321,-0.029948,0.005217
15.045295,-0.012912,-0.045889,0.001884
15.055336,0.014894,-0.011811,0.003190
15.065345,0.001006,-0.023513,0.003096
15.075386,-0.018253,-0.051222,0.003980
15.095436,0.013788,-0.024607,-0.000078
15.105445,-0.001128,-0.025652,0.005217
15.115486,0.001006,-0.023513,0.003096
15.125526,-0.009662,-0.028833,0.006246
15.135536,0.003140,-0.024603,0.006302
15.145576,0.012729,-0.024624,0.004192
15.165626,-0.004334,-0.029924,0.007324
15.175636,0.003155,-0.021420,0.010590
15.185676,0.005296,-0.017150,0.009547
15.195716,-0.004309,-0.021385,0.008433
15.205726,-0.005380,-0.024596,0.010551
15.215766,-0.000038,-0.020346,0.011654
15.245826,-0.005348,-0.015005,0.014869
15.255867,-0.019259,-0.033094,0.010472
15.265876,0.015960,-0.018278,0.014913
15.275917,0.004240,-0.017177,0.015954
15.285957,-0.010733,-0.034200,0.012627
15.306007,0.006358,-0.019294,0.010608
15.316017,-0.014969,-0.024575,0.012661
15.326057,-0.006458,-0.028864,0.010528
15.336067,-0.004313,-0.025682,0.013753
15.346107,-0.018183,-0.029899,0.011559
15.356147,0.004213,-0.023554,0.009514
15.366157,-0.011766,-0.021371,0.010549
15.376197,-0.010736,-0.034190,0.010491
15.386207,0.003152,-0.023566,0.012716
15.396247,-0.014986,-0.027753,0.007305
15.406257,-0.005416,-0.036333,0.008359
15.416297,0.003165,-0.016065,0.007410
15.426307,-0.008587,-0.027789,0.010527
15.446388,-0.000040,-0.018185,0.006323
15.456398,-0.007531,-0.030991,0.009446
15.466438,-0.002192,-0.026732,0.008413
15.476448,0.005287,-0.019275,0.007401
15.486488,-0.007512,-0.023511,0.008414
15.496498,-0.002180,-0.024616,0.012696
15.516578,0.007403,-0.025695,0.008445
15.526588,-0.002174,-0.022480,0.012706
15.536628,-0.002167,-0.018193,0.009522
15.546638,0.002086,-0.020328,0.006319
15.556678,0.003159,-0.018201,0.007400
15.566688,0.001053,-0.011811,0.012766
15.596778,0.039446,-0.001242,0.009717
15.596778,0.039446,-0.001242,0.009717
15.616828,-0.017104,-0.025636,0.012650
15.616828,-0.017104,-0.025636,0.012650
15.636878,0.015958,-0.017194,0.011713
15.656929,-0.020340,-0.038430,0.010444
15.656929,-0.020340,-0.038430,0.010444
15.677009,0.022367,-0.011876,0.011756
15.687019,-0.004316,-0.024594,0.009486
15.697059,-0.020332,-0.037377,0.013654
15.697059,-0.020332,-0.037377,0.013654
15.717109,0.010609,-0.021424,0.006337
15.737159,-0.009664,-0.030979,0.008372
15.737159,-0.009664,-0.030979,0.008372
15.757209,0.008485,-0.018208,0.005278
15.757209,0.008485,-0.018208,0.005278
15.777259,-0.021389,-0.028785,0.004078
15.777259,-0.021389,-0.028785,0.004078
15.787300,0.007410,-0.020330,0.003129
15.817390,0.010612,-0.020356,0.006342
15.817390,0.010612,-0.020356,0.006342
15.827400,-0.009636,-0.021373,0.009486
15.837440,-0.006478,-0.030954,0.000904
15.847469,0.021274,-0.018249,0.005314
15.857509,-0.011767,-0.018137,0.004155
15.877559,0.009549,-0.018206,0.004213
15.887569,0.001027,-0.017116,0.005263
15.897609,-0.004340,-0.029903,0.003051
15.907649,0.007394,-0.026743,0.004167
15.917659,-0.006457,-0.025635,0.005202
15.927699,0.006318,-0.031016,0.005212
15.957759,0.002018,-0.044890,0.006203
15.957759,0.002018,-0.044890,0.006203
15.967800,0.019156,-0.013976,0.006396
15.977840,0.007408,-0.021403,0.004192
15.987850,-0.004339,-0.030986,0.006251
15.997890,0.007401,-0.025690,0.007376
16.027950,0.019160,-0.010757,0.003207
16.027950,0.019160,-0.010757,0.003207
16.037990,-0.011805,-0.032020,0.004089
16.048000,-0.010720,-0.025621,0.005190
16.058040,0.007435,-0.012870,0.006369
16.068080,-0.005379,-0.019216,0.002031
16.098140,-0.012858,-0.026672,0.003043
16.098140,-0.012858,-0.026672,0.003043
16.108180,0.002083,-0.017089,-0.001143
16.118190,0.002096,-0.012822,-0.000055
16.128230,-0.009674,-0.032027,0.004095
16.138271,-0.005376,-0.017070,-0.000096
16.158321,-0.003265,-0.024552,-0.000125
16.158321,-0.003265,-0.024552,-0.000125
16.168331,-0.004304,-0.014937,-0.000083
16.178371,-0.003253,-0.020280,-0.000105
16.188381,-0.003244,-0.017076,-0.000090
16.198421,0.000994,-0.026707,0.000945
16.208461,-0.003235,-0.013873,-0.000075
16.228511,-0.017110,-0.021308,0.000920
16.228511,-0.017110,-0.021308,0.000920
16.238521,-0.001097,-0.010671,-0.001122
16.248561,-0.012832,-0.014904,-0.001174
16.258571,-0.020316,-0.022346,-0.003367
16.268611,-0.000037,-0.012810,-0.001129
16.278621,-0.010719,-0.023470,0.001996
16.318752,-0.015005,-0.029848,-0.001251
16.328761,-0.008588,-0.023477,0.002002
16.338802,-0.005386,-0.021346,0.000952
16.348812,-0.002192,-0.022425,0.000956
16.368892,-0.005395,-0.024550,0.000937
16.368892,-0.005395,-0.024550,0.000937
16.378902,-0.008585,-0.021331,-0.000125
16.388942,0.003166,-0.010685,-0.001110
16.398952,-0.028859,-0.029808,-0.000221
16.408992,-0.025653,-0.025537,-0.002328
16.419002,0.006367,-0.010705,0.001035
16.439052,-0.011816,-0.033063,-0.001257
16.449092,0.012749,-0.014993,-0.000036
16.459133,-0.016075,-0.031986,-0.000196
16.469142,-0.006462,-0.024542,-0.000134
16.479183,0.022340,-0.012868,-0.004272
16.489192,0.009523,-0.025666,0.000973
16.509242,-0.000091,-0.033106,-0.000157
16.519283,0.002080,-0.018157,-0.001148
16.529323,0.009549,-0.013899,-0.003244
16.539333,0.004182,-0.027765,-0.003324
16.549373,-0.006464,-0.023458,-0.003333
16.559383,0.003144,-0.017077,-0.004345
16.589473,-0.007510,-0.013823,-0.007564
16.589473,-0.007510,-0.013823,-0.007564
16.599513,-0.012856,-0.020214,-0.007609
16.609523,-0.008577,-0.014893,-0.006503
16.619563,-0.005390,-0.019180,-0.005447
16.629573,-0.007524,-0.020241,-0.005458
16.649623,0.007407,-0.016013,-0.006465
16.649623,0.007407,-0.016013,-0.006465
16.659664,0.008444,-0.027774,-0.004381
16.669673,-0.012855,-0.021297,-0.004409
16.679714,0.000983,-0.027749,-0.004401
16.689754,0.005251,-0.025622,-0.005448
16.699764,0.008467,-0.018152,-0.006472
16.719814,-0.016083,-0.031961,-0.005537
16.729854,-0.005405,-0.026671,-0.002278
16.739864,0.004178,-0.028828,-0.004398
16.749904,-0.005381,-0.014898,-0.007563
16.759944,-0.011817,-0.029828,-0.007651
16.769954,-0.018231,-0.037288,-0.006636
16.790004,-0.000084,-0.026663,-0.007604
16.800044,-0.008601,-0.022358,-0.008675
16.810054,-0.005431,-0.034131,-0.005518
16.820094,-0.006481,-0.026637,-0.008690
16.830104,-0.000082,-0.024517,-0.009730
16.840145,0.003125,-0.022401,-0.007575
16.860211,-0.001162,-0.028775,-0.011890
16.870251,0.003135,-0.019203,-0.006491
16.880261,-0.009690,-0.029820,-0.010850
16.890301,0.008439,-0.026680,-0.009717
16.900311,-0.006478,-0.024491,-0.010816
16.910351,-0.006494,-0.030904,-0.009778
16.940441,-0.000084,-0.023434,-0.012930
16.940441,-0.000084,-0.023434,-0.012930
16.950451,-0.003268,-0.019157,-0.011850
16.960491,-0.008613,-0.023396,-0.015089
16.970501,-0.005406,-0.022359,-0.010803
16.980541,-0.002204,-0.016999,-0.017178
17.000591,-0.010729,-0.016976,-0.016133
17.010632,-0.006488,-0.024461,-0.017225
17.020642,-0.007526,-0.013773,-0.018246
17.030682,-0.003264,-0.013782,-0.019302
17.040692,-0.012880,-0.022294,-0.019369
17.050732,-0.006456,-0.011635,-0.019301
17.080822,0.011672,-0.009568,-0.017104
17.090832,-0.018199,-0.018000,-0.020432
17.100872,-0.011823,-0.025501,-0.019381
17.110882,0.020201,-0.009606,-0.014945
17.120922,0.006312,-0.022381,-0.013975
17.140972,-0.015027,-0.021326,-0.019279
17.140972,0.018031,-0.021326,-0.019279
17.151013,0.006340,-0.011697,-0.014993
17.161022,-0.006500,-0.027654,-0.019377
17.171063,-0.001147,-0.019128,-0.019322
17.181072,-0.003287,-0.024481,-0.015080
17.191113,-0.004362,-0.025525,-0.019361
17.221203,-0.002235,-0.026595,-0.020428
17.231213,0.000983,-0.019130,-0.020384
17.241253,-0.020354,-0.026536,-0.020478
17.251263,-0.009724,-0.035099,-0.023694
17.261303,-0.000085,-0.018043,-0.023586
17.281353,-0.012906,-0.030827,-0.021546
17.291363,-0.010798,-0.036148,-0.026906
17.301403,0.008432,-0.020197,-0.025709
17.311444,0.004160,-0.023387,-0.025736
17.321453,0.004129,-0.034061,-0.026855
17.331494,-0.000120,-0.030859,-0.023647
17.351544,0.027621,-0.017040,-0.028846
17.361553,0.016963,-0.019162,-0.024613
17.371594,-0.020418,-0.044645,-0.030178
17.381634,0.006283,-0.024441,-0.030008
17.391644,0.027635,-0.009545,-0.033083
17.401684,0.003074,-0.025474,-0.035363
17.431744,0.004148,-0.023346,-0.034282
17.431744,0.004148,-0.023346,-0.034282
17.441784,-0.006498,-0.016889,-0.037485
17.451794,-0.006514,-0.022224,-0.038579
17.461834,0.006295,-0.014785,-0.039576
17.471874,0.002024,-0.017980,-0.038535
17.491924,0.008397,-0.024393,-0.041753
17.501934,0.010579,-0.005172,-0.042724
17.511975,-0.002275,-0.028625,-0.042870
17.521984,-0.006546,-0.032893,-0.040766
17.532025,-0.004375,-0.017944,-0.041757
17.542065,0.010512,-0.028656,-0.044971
17.562115,0.011610,-0.017990,-0.042782
17.572125,-0.015089,-0.037122,-0.044014
17.582165,0.003038,-0.032899,-0.046080
17.592175,0.026557,-0.007350,-0.044826
17.602215,0.000896,-0.037168,-0.045038
17.612255,-0.014040,-0.042460,-0.045105
17.642315,-0.016180,-0.044578,-0.047257
17.652355,-0.020419,-0.033870,-0.050423
17.662365,0.009446,-0.023268,-0.054563
17.672405,-0.000130,-0.016824,-0.055627
17.682415,-0.027882,-0.030607,-0.057905
17.702496,-0.006555,-0.024248,-0.062089
17.712506,-0.000173,-0.029614,-0.061029
17.722546,-0.010830,-0.028506,-0.062121
17.732556,-0.008725,-0.037046,-0.064292
17.742596,0.004091,-0.027476,-0.064211
17.752606,0.011561,-0.024297,-0.064176
17.772686,0.012594,-0.034969,-0.066360
17.782696,0.007335,-0.008244,-0.068384
17.792736,0.010427,-0.045622,-0.070689
17.802746,-0.002341,-0.038110,-0.069621
17.812786,0.017973,-0.013603,-0.071585
17.822796,0.005149,-0.026376,-0.071681
17.852912,-0.001272,-0.031660,-0.079201
17.862953,0.000887,-0.020983,-0.080213
17.872962,0.012614,-0.019953,-0.080176
17.883003,0.007247,-0.033818,-0.080256
17.893012,-0.009775,-0.023089,-0.079184
17.913063,0.021103,-0.030634,-0.085544
17.923103,0.022201,-0.018891,-0.085485
17.933143,-0.007669,-0.027322,-0.088812
17.943153,-0.010914,-0.043320,-0.091033
17.953193,0.008345,-0.015611,-0.091917
17.963203,0.017909,-0.025249,-0.093005
17.983253,0.007258,-0.019849,-0.098349
17.983253,0.007258,-0.019849,-0.098349
17.993293,0.022172,-0.022029,-0.099387
18.003334,-0.002400,-0.043308,-0.099555
18.013343,-0.000232,-0.029426,-0.100552
18.023384,0.034982,-0.015673,-0.097185
18.033393,0.013610,-0.033738,-0.101602
18.053443,0.028554,-0.022009,-0.107915
18.063484,0.028570,-0.016674,-0.106821
18.073493,-0.008829,-0.049644,-0.110285
18.083534,0.000822,-0.029394,-0.108026
18.093574,0.029628,-0.017731,-0.110028
18.103584,-0.002383,-0.030437,-0.111245
18.123634,0.023215,-0.023039,-0.112207
18.133674,0.009345,-0.026178,-0.116533
18.143684,-0.013063,-0.036794,-0.114509
18.153724,0.003996,-0.035792,-0.112321
18.163764,0.013611,-0.025124,-0.116516
18.173774,0.002939,-0.028278,-0.119766
18.193824,0.005071,-0.029363,-0.117628
18.203865,0.022093,-0.037936,-0.122963
18.213874,0.007207,-0.026151,-0.120812
18.223915,0.017836,-0.037943,-0.118702
18.233924,0.011443,-0.037927,-0.117651
18.243965,0.023134,-0.048634,-0.119806
18.254005,0.031723,-0.025162,-0.120739
18.264015,0.033852,-0.028393,-0.116476
18.274055,0.010357,-0.043248,-0.120884
18.284065,0.010369,-0.038976,-0.120864
18.294105,0.031696,-0.032618,-0.125048
18.304115,0.031721,-0.024079,-0.123939
18.314155,0.003996,-0.031485,-0.119778
18.344245,0.027468,-0.018711,-0.127130
18.354255,0.023142,-0.042196,-0.126185
18.364295,0.003971,-0.037867,-0.125149
18.374305,0.021039,-0.030432,-0.128271
18.384345,0.021017,-0.036824,-0.131506
18.404396,0.030606,-0.037923,-0.131485
18.414436,0.039182,-0.019796,-0.131376
18.424446,0.017784,-0.048551,-0.133707
18.434486,0.009281,-0.039980,-0.133690
18.444496,0.030631,-0.027229,-0.134639
18.454536,0.021014,-0.032507,-0.141100
18.484626,0.011400,-0.041024,-0.140099
18.494636,0.024221,-0.030392,-0.138945
18.504676,0.024225,-0.028251,-0.140003
18.514686,-0.003521,-0.039898,-0.142271
18.524726,0.028454,-0.037851,-0.145377
18.544776,0.007125,-0.045282,-0.140130
18.554817,0.003902,-0.051654,-0.145511
18.564826,0.039150,-0.026158,-0.141020
18.574867,0.011410,-0.033513,-0.147540
18.584876,0.014551,-0.053814,-0.147628
18.594917,0.011405,-0.035654,-0.146482
18.614967,-0.000357,-0.049499,-0.146580
18.625007,-0.012085,-0.049446,-0.149817
18.635017,0.010327,-0.037767,-0.150768
18.645057,0.028450,-0.034606,-0.153908
18.655067,0.017775,-0.043135,-0.149705
18.665107,-0.012099,-0.056942,-0.145580
18.685157,0.023126,-0.034604,-0.150718
18.695167,0.060456,-0.022963,-0.153764
18.705207,-0.002532,-0.061204,-0.154119
18.715248,-0.008957,-0.071858,-0.155256
18.725257,0.033764,-0.038885,-0.156050
18.735298,0.030561,-0.041011,-0.156069
18.765357,0.028432,-0.034551,-0.165658
18.765357,0.028432,-0.034551,-0.165658
18.775398,0.013487,-0.041968,-0.167871
18.785438,0.002803,-0.052622,-0.165814
18.795448,0.002804,-0.049393,-0.171140
18.805488,0.023114,-0.028106,-0.169915
18.825538,0.010252,-0.051533,-0.175402
18.835548,0.011314,-0.052600,-0.176473
18.845609,0.023099,-0.029133,-0.178466
18.855619,0.023053,-0.045147,-0.179610
18.865659,0.011348,-0.036550,-0.182806
18.875699,0.015574,-0.049374,-0.183923
18.895750,0.029467,-0.033380,-0.188082
18.905759,0.021965,-0.046151,-0.192436
18.915800,0.004905,-0.049304,-0.191430
18.925809,0.019850,-0.039731,-0.193480
18.935850,0.026223,-0.045071,-0.197760
18.945890,0.016662,-0.034366,-0.196668
18.965940,0.007005,-0.054595,-0.203199
18.975950,0.018786,-0.034348,-0.202003
18.985990,0.034777,-0.031181,-0.205148
18.996000,0.005937,-0.054587,-0.204271
19.006040,0.018738,-0.047122,-0.210609
19.016080,0.036928,-0.022634,-0.207238
19.036130,0.013399,-0.051382,-0.209576
19.046140,0.015571,-0.034282,-0.213762
19.056180,0.041080,-0.056766,-0.219139
19.066190,0.029432,-0.034347,-0.209451
19.076230,0.002702,-0.060918,-0.218196
19.086240,0.025120,-0.049259,-0.214874
19.106321,0.017630,-0.057758,-0.219208
19.116331,0.009085,-0.066288,-0.216068
19.126371,0.057150,-0.027994,-0.216822
19.136381,0.044330,-0.036475,-0.221170
19.146421,0.014406,-0.068437,-0.217131
19.156431,0.019771,-0.052410,-0.222382
19.176511,0.048590,-0.037557,-0.221164
19.186521,0.011248,-0.052392,-0.220269
19.196561,0.020824,-0.056680,-0.223467
19.206571,0.044313,-0.038576,-0.228658
19.216611,0.032596,-0.038558,-0.224417
19.226621,0.019770,-0.048097,-0.230907
19.256711,0.017588,-0.064089,-0.235262
19.266752,0.022957,-0.051307,-0.231982
19.276761,0.069959,-0.010863,-0.234865
19.286802,0.034735,-0.029971,-0.235053
19.296812,-0.001627,-0.073623,-0.238564
19.316862,0.052864,-0.022524,-0.241377
19.326902,0.028300,-0.040594,-0.242598
19.336942,0.011227,-0.049092,-0.240549
19.346952,0.019757,-0.046979,-0.241584
19.356992,0.038972,-0.036367,-0.240412
19.356992,0.038972,-0.036367,-0.240412
19.377042,0.028273,-0.048049,-0.246906
19.397092,0.032598,-0.027793,-0.242526
19.407133,0.027189,-0.054453,-0.246940
19.417142,0.030386,-0.053386,-0.249062
19.417142,0.030386,-0.053386,-0.249062
19.427183,0.049628,-0.034241,-0.245714
19.437192,0.018683,-0.043716,-0.253322
19.447233,0.035714,-0.052320,-0.252247
19.487333,0.024045,-0.029835,-0.256446
19.487333,0.024045,-0.029835,-0.256446
19.507383,0.027179,-0.052267,-0.257513
19.507383,0.033621,-0.035201,-0.257513
19.517423,0.030398,-0.043729,-0.258630
19.547483,0.049605,-0.036321,-0.257474
19.547483,0.049605,-0.036321,-0.257474
19.557523,0.022851,-0.072513,-0.264129
19.567564,0.026104,-0.052233,-0.264024
19.577573,0.055993,-0.035243,-0.263861
19.587614,0.035700,-0.050123,-0.265055
19.617673,0.036755,-0.055477,-0.262941
19.627714,0.044225,-0.050146,-0.266100
19.637723,0.054901,-0.045929,-0.261778
19.647764,0.036728,-0.064010,-0.265118
19.657804,0.038878,-0.056536,-0.266145
19.687864,0.034601,-0.058633,-0.271508
19.687864,0.034601,-0.058633,-0.271508
19.697904,0.051729,-0.033073,-0.268135
19.707914,0.032490,-0.051151,-0.271478
19.717954,0.015415,-0.057488,-0.274760
19.727994,0.037837,-0.043682,-0.273565
19.748044,0.025024,-0.048955,-0.278966
19.758054,0.035661,-0.057538,-0.277909
19.768095,0.038909,-0.038321,-0.278877
19.778104,0.043128,-0.052197,-0.283204
19.788145,0.042037,-0.061810,-0.282185
19.798185,0.049518,-0.054359,-0.282129
19.828245,0.045257,-0.056506,-0.276809
19.828245,0.045257,-0.056506,-0.276809
19.838285,0.045212,-0.069291,-0.283279
19.848342,0.064482,-0.038384,-0.283080
19.858382,0.069770,-0.053352,-0.283136
19.868392,0.042049,-0.057539,-0.282164
19.898482,0.046360,-0.037237,-0.287397
19.898482,0.046360,-0.037237,-0.287397
19.908522,0.022891,-0.042480,-0.291760
19.918532,0.028211,-0.045701,-0.291760
19.928572,0.033583,-0.030772,-0.290607
19.938582,0.019665,-0.049920,-0.297145
19.968673,0.023922,-0.050991,-0.299275
19.968673,0.023922,-0.050991,-0.299275
19.978713,0.031422,-0.041445,-0.290663
19.988723,0.031415,-0.039268,-0.299199
19.998763,0.034605,-0.042488,-0.298137
20.008773,0.037805,-0.040352,-0.300254
20.048903,0.022855,-0.049905,-0.302477
20.048903,0.022855,-0.049905,-0.302477
20.058913,0.044216,-0.035038,-0.299143
20.068953,0.037817,-0.035002,-0.302365
20.078963,0.035668,-0.043559,-0.298139
20.099013,0.022901,-0.031740,-0.304528
20.099013,0.022901,-0.031740,-0.304528
20.109053,0.042070,-0.040371,-0.299174
20.119094,0.029329,-0.021091,-0.302323
20.129103,0.012237,-0.033841,-0.304567
20.139144,0.034611,-0.038196,-0.302389
20.149153,0.025067,-0.020005,-0.303398
20.159194,0.014346,-0.039162,-0.309928
20.169204,0.033553,-0.032832,-0.306640
20.179244,0.025058,-0.023208,-0.303413
20.189284,0.003676,-0.045550,-0.306783
20.199294,0.026082,-0.036007,-0.307744
20.209334,0.038921,-0.020045,-0.304428
20.219344,0.030310,-0.048836,-0.307793
20.229384,0.026080,-0.034924,-0.310943
20.239394,0.032480,-0.033882,-0.309852
20.249434,0.028195,-0.043494,-0.306705
20.259444,0.023943,-0.035975,-0.313091
20.269484,0.027129,-0.041335,-0.310971
20.279525,0.022868,-0.039175,-0.313109
20.289534,0.031388,-0.038104,-0.319489
20.309584,0.011098,-0.054073,-0.316416
20.319625,0.034563,-0.046663,-0.318453
20.329634,0.040999,-0.037118,-0.308776
20.339675,0.024976,-0.046647,-0.315275
20.349715,0.032410,-0.057361,-0.313168
20.359725,0.031393,-0.040276,-0.312022
20.399825,0.017516,-0.048779,-0.311032
20.399825,0.017516,-0.048779,-0.311032
20.409865,0.044195,-0.040358,-0.303441
20.419905,0.042102,-0.025390,-0.305513
20.429915,0.019642,-0.058463,-0.297186
20.449965,0.087958,-0.020239,-0.296816
20.449965,0.087958,-0.020239,-0.296816
20.460006,0.055960,-0.029752,-0.295881
20.470015,0.037752,-0.063882,-0.292888
20.480056,0.075139,-0.035184,-0.289445
20.490065,0.089009,-0.029889,-0.289381
20.500106,0.059102,-0.053287,-0.289575
20.530196,0.071902,-0.049052,-0.290587
20.540206,0.070821,-0.054388,-0.290616
20.550246,0.075127,-0.039456,-0.289465
20.560256,0.072917,-0.063976,-0.297064
20.570296,0.064406,-0.059687,-0.294931
20.600386,0.062237,-0.072490,-0.296066
20.600386,0.062237,-0.072490,-0.296066
20.610396,0.076130,-0.056496,-0.300225
20.620436,0.060130,-0.060710,-0.301357
20.630446,0.040906,-0.075604,-0.300413
20.640486,0.065453,-0.060707,-0.305615
20.670577,0.027080,-0.064880,-0.300400
20.670577,0.027080,-0.064880,-0.300400
20.680587,0.061233,-0.043596,-0.307682
20.690627,0.045219,-0.056385,-0.302446
20.700637,0.014295,-0.061619,-0.303625
20.710677,0.038824,-0.054208,-0.306726
20.740767,0.029242,-0.053134,-0.301407
20.750777,0.033527,-0.043522,-0.304554
20.760817,0.033508,-0.051002,-0.303521
20.770827,0.036737,-0.043573,-0.296000
20.780867,0.020747,-0.043510,-0.298180
20.810958,0.043165,-0.028617,-0.301252
20.810958,0.043165,-0.028617,-0.301252
20.820967,0.013249,-0.055218,-0.301461
20.831008,0.006860,-0.056291,-0.296142
20.841017,0.028207,-0.041379,-0.302422
20.851075,0.020744,-0.043500,-0.300316
20.881135,0.014351,-0.045641,-0.295003
20.881135,0.014351,-0.045641,-0.295003
20.891175,0.034615,-0.041440,-0.293859
20.901215,0.015359,-0.068081,-0.292970
20.911225,0.019644,-0.060624,-0.291855
20.921265,0.037816,-0.042538,-0.289583
20.951325,0.037811,-0.042523,-0.292787
20.951325,0.037811,-0.042523,-0.292787
20.961365,0.016425,-0.070240,-0.288705
20.971406,0.027148,-0.048937,-0.284301
20.981415,0.032487,-0.043599,-0.287466
20.991456,0.019655,-0.059582,-0.286509
21.021515,0.021770,-0.064923,-0.287596
21.021515,0.021770,-0.064923,-0.287596
21.031556,0.038898,-0.040441,-0.282092
21.041596,0.029279,-0.047866,-0.286427
21.051606,0.037759,-0.066058,-0.284353
21.061646,0.045288,-0.043676,-0.279953
21.091706,0.061253,-0.052277,-0.278882
21.091706,0.061253,-0.052277,-0.278882
21.101746,0.056975,-0.057602,-0.278919
21.111756,0.054746,-0.090681,-0.283354
21.121796,0.059104,-0.059755,-0.276787
21.131836,0.054775,-0.083231,-0.277978
21.161896,0.048385,-0.078918,-0.282248
21.161896,0.048385,-0.078918,-0.282248
21.171937,0.035572,-0.087420,-0.282324
21.181946,0.064413,-0.064019,-0.282133
21.191987,0.040970,-0.063958,-0.278993
21.202027,0.019594,-0.083086,-0.284484
21.232087,0.020698,-0.070285,-0.282284
21.232087,0.020698,-0.070285,-0.282284
21.242127,0.051688,-0.045868,-0.272469
21.252137,0.028164,-0.067095,-0.284384
21.262177,0.035606,-0.076756,-0.279068
21.272187,0.063415,-0.045916,-0.270300
21.302277,0.065533,-0.051268,-0.269251
21.302277,0.065533,-0.051268,-0.269251
21.312317,0.054846,-0.061913,-0.269331
21.322327,0.066592,-0.054480,-0.268195
21.332367,0.064480,-0.045920,-0.270297
21.342377,0.044146,-0.074673,-0.273694
21.362458,0.058117,-0.031996,-0.274522
21.372468,0.037770,-0.066094,-0.276876
21.382508,0.050625,-0.044797,-0.272466
21.392518,0.052759,-0.041580,-0.276718
21.402558,0.043141,-0.052238,-0.274659
21.412568,0.043180,-0.037282,-0.275656
21.432648,0.055921,-0.055483,-0.274639
21.442658,0.046348,-0.047972,-0.275698
21.452698,0.041022,-0.047964,-0.273576
21.462708,0.048492,-0.041556,-0.278866
21.472748,0.049566,-0.040506,-0.275654
21.482758,0.036708,-0.061793,-0.282199
21.512848,0.019663,-0.058529,-0.283299
21.522889,0.026122,-0.036133,-0.281039
21.532898,0.032529,-0.028653,-0.286327
21.542939,0.001576,-0.046723,-0.283293
21.552949,0.018679,-0.030779,-0.278898
21.572999,0.017554,-0.049978,-0.283264
21.572999,0.017554,-0.049978,-0.283264
21.583039,0.019710,-0.042520,-0.281087
21.593079,0.030415,-0.027624,-0.276714
21.603089,0.031457,-0.035093,-0.278883
21.613129,0.028285,-0.028700,-0.273520
21.623139,0.019722,-0.040404,-0.276804
21.643189,0.037912,-0.019145,-0.268107
21.643189,0.037912,-0.019145,-0.268107
21.653229,0.033617,-0.030879,-0.268175
21.663270,0.044240,-0.044806,-0.266075
21.673279,0.041054,-0.040524,-0.266063
21.683320,0.055975,-0.041651,-0.263891
21.693329,0.056000,-0.033112,-0.262782
21.713379,0.058119,-0.039542,-0.259602
21.713379,0.058119,-0.039542,-0.259602
21.723420,0.060239,-0.042743,-0.261748
21.733430,0.074100,-0.044959,-0.254243
21.743470,0.068763,-0.045994,-0.257467
21.753510,0.080498,-0.038527,-0.263808
21.763520,0.073049,-0.037465,-0.257415
21.783570,0.079453,-0.035360,-0.255251
21.793610,0.080515,-0.032119,-0.263778
21.803620,0.057009,-0.054479,-0.261812
21.813660,0.074149,-0.024648,-0.258419
21.823700,0.082625,-0.036367,-0.270202
21.833710,0.065547,-0.049157,-0.263900
21.853794,0.085814,-0.039581,-0.270208
21.863835,0.078365,-0.039593,-0.262751
21.873844,0.066638,-0.036315,-0.270246
21.883885,0.089006,-0.041728,-0.270209
21.893894,0.089041,-0.031069,-0.265886
21.903935,0.063441,-0.036305,-0.270254
21.923985,0.087979,-0.027846,-0.269078
21.934025,0.076239,-0.033143,-0.270204
21.944035,0.060240,-0.040592,-0.264942
21.954075,0.069850,-0.030986,-0.270212
21.964085,0.085821,-0.036373,-0.271261
21.974125,0.067695,-0.038445,-0.272389
22.004215,0.050643,-0.040545,-0.268173
22.014225,0.068821,-0.021402,-0.263760
22.024266,0.073047,-0.033148,-0.267008
22.034275,0.045311,-0.042674,-0.266062
22.044316,0.051733,-0.034161,-0.263867
22.064366,0.035732,-0.038376,-0.265000
22.074406,0.037883,-0.033059,-0.261764
22.084416,0.049644,-0.019209,-0.262734
22.094456,0.033589,-0.043719,-0.262894
22.104466,0.029355,-0.033026,-0.262856
22.114506,0.052816,-0.027757,-0.263834
22.134556,0.035729,-0.042673,-0.259679
22.144596,0.041079,-0.033064,-0.262823
22.154606,0.046387,-0.042708,-0.259650
22.164646,0.039987,-0.042672,-0.262872
22.174656,0.051711,-0.043788,-0.260708
22.184696,0.058119,-0.040620,-0.257471
22.204746,0.045292,-0.054462,-0.257572
22.214787,0.059166,-0.044870,-0.262829
22.224797,0.069844,-0.038507,-0.260633
22.234837,0.042092,-0.052290,-0.262912
22.244847,0.046349,-0.056591,-0.259715
22.254887,0.057068,-0.034199,-0.259580
22.284947,0.044242,-0.042660,-0.268201
22.284947,0.044242,-0.042660,-0.268201
22.294987,0.051689,-0.051258,-0.261812
22.305027,0.031472,-0.038372,-0.262875
22.315037,0.023975,-0.051158,-0.264024
22.325077,0.038910,-0.049096,-0.258632
22.345127,0.038923,-0.044830,-0.257544
22.355137,0.039964,-0.053371,-0.258650
22.365177,0.049548,-0.056606,-0.258638
22.375218,0.061313,-0.043849,-0.254273
22.385227,0.058098,-0.049169,-0.256443
22.395268,0.042080,-0.060869,-0.255475
22.415318,0.050667,-0.040621,-0.252150
22.425328,0.049549,-0.060918,-0.250113
22.435368,0.059164,-0.052406,-0.250046
22.445408,0.057062,-0.040642,-0.252133
22.455418,0.062324,-0.067378,-0.247972
22.465458,0.047458,-0.047039,-0.247917
22.485508,0.048504,-0.054518,-0.247949
22.495518,0.047466,-0.045986,-0.244707
22.505558,0.037839,-0.058770,-0.244794
22.515568,0.042122,-0.050230,-0.246878
22.525608,0.047485,-0.039583,-0.243609
22.535649,0.030384,-0.056610,-0.244805
22.565708,0.038908,-0.059861,-0.240524
22.575749,0.038911,-0.058794,-0.240519
22.585758,0.050619,-0.066322,-0.237317
22.595799,0.036763,-0.069506,-0.232030
22.605839,0.052755,-0.066344,-0.234107
22.625889,0.038877,-0.076999,-0.229923
22.635899,0.055952,-0.069584,-0.228772
22.645939,0.064468,-0.074966,-0.225569
22.655949,0.033547,-0.080211,-0.224612
22.665989,0.054883,-0.074955,-0.221323
22.676029,0.053845,-0.064268,-0.222344
22.696079,0.035701,-0.073825,-0.221371
22.706089,0.057056,-0.061089,-0.219115
22.716130,0.029340,-0.065291,-0.214939
22.726139,0.021836,-0.079135,-0.218230
22.736180,0.045332,-0.062129,-0.217016
22.746189,0.041091,-0.055723,-0.213793
22.766270,0.030413,-0.065320,-0.209595
22.776280,0.034674,-0.067480,-0.207457
22.786320,0.047457,-0.068579,-0.209563
22.796330,0.048532,-0.067535,-0.205282
22.806370,0.018673,-0.074924,-0.203263
22.816380,0.041056,-0.075002,-0.202134
22.836460,0.033600,-0.073914,-0.201081
22.846470,0.032533,-0.076062,-0.197889
22.856526,0.037877,-0.069662,-0.199981
22.866536,0.034687,-0.068599,-0.196780
22.876576,0.036827,-0.065402,-0.196759
22.886586,0.035764,-0.064330,-0.196757
22.916677,0.031521,-0.060070,-0.191407
22.926717,0.019796,-0.061105,-0.190376
22.936727,0.031536,-0.056886,-0.187119
22.946767,0.016615,-0.055760,-0.189292
22.956777,0.031519,-0.064372,-0.185018
22.976827,0.023004,-0.061151,-0.182890
22.986867,0.013407,-0.065411,-0.178664
22.996907,0.036874,-0.059085,-0.177501
23.006917,0.037963,-0.051623,-0.175326
23.016957,0.024065,-0.066524,-0.176503
23.026967,0.021942,-0.066543,-0.171168
23.047017,0.033674,-0.063377,-0.171121
23.047017,0.033674,-0.063377,-0.171121
23.067098,0.019841,-0.055861,-0.170055
23.077107,0.014524,-0.053728,-0.165787
23.087148,0.010242,-0.060117,-0.166897
23.087148,0.010242,-0.060117,-0.166897
23.097157,0.010269,-0.049433,-0.167915
23.137258,0.012412,-0.048397,-0.162563
23.137258,0.012412,-0.048397,-0.162563
23.147298,0.015604,-0.051621,-0.160433
23.157338,0.017760,-0.043090,-0.159319
23.167348,0.018807,-0.050574,-0.158283
23.197438,0.028419,-0.046359,-0.152895
23.197438,0.028419,-0.046359,-0.152895
23.207448,0.028411,-0.050641,-0.150779
23.217488,0.020968,-0.045287,-0.148638
23.227529,0.014565,-0.050626,-0.144408
23.237538,0.024148,-0.052783,-0.146528
23.267629,0.004922,-0.069822,-0.143457
23.267629,0.004922,-0.069822,-0.143457
23.277638,0.038063,-0.036859,-0.135732
23.287679,0.040187,-0.038997,-0.136805
23.297688,-0.005710,-0.062333,-0.139178
23.307729,0.017774,-0.051750,-0.134791
23.337819,-0.001421,-0.057042,-0.131664
23.337819,-0.001421,-0.057042,-0.131664
23.347829,0.012476,-0.041058,-0.133686
23.357869,0.027443,-0.028327,-0.126107
23.367879,0.003932,-0.048516,-0.131609
23.377919,0.007118,-0.054954,-0.127358
23.408010,0.000738,-0.049594,-0.127350
23.408010,0.000738,-0.049594,-0.127350
23.418019,0.015690,-0.038968,-0.126190
23.428060,0.019944,-0.041108,-0.128325
23.438069,0.016737,-0.046452,-0.125154
23.448110,-0.005666,-0.052777,-0.127383
23.478200,-0.009955,-0.061296,-0.129571
23.478200,-0.009955,-0.061296,-0.129571
23.488210,-0.001401,-0.051718,-0.128434
23.498250,0.014636,-0.033615,-0.128304
23.508260,0.004978,-0.058151,-0.127379
23.518300,0.006107,-0.035733,-0.126201
23.548390,-0.002452,-0.046375,-0.128412
23.548390,-0.002452,-0.046375,-0.128412
23.558400,0.029552,-0.034726,-0.129336
23.568440,0.009286,-0.039995,-0.130486
23.578450,-0.004594,-0.050645,-0.127370
23.588490,0.014585,-0.049614,-0.132653
23.618581,0.007135,-0.045313,-0.133721
23.618581,0.007135,-0.045313,-0.133721
23.628591,0.003965,-0.040003,-0.125159
23.638631,0.014627,-0.032512,-0.135776
23.648641,0.016756,-0.038972,-0.126187
23.658681,0.003947,-0.044255,-0.129452
23.688771,0.006082,-0.044272,-0.127310
23.688771,0.006082,-0.044272,-0.127310
23.698781,0.014590,-0.050707,-0.127317
23.708821,0.035957,-0.031548,-0.128235
23.718831,0.026366,-0.033673,-0.123999
23.728871,0.001793,-0.052796,-0.128430
23.748921,0.029547,-0.037940,-0.127215
23.758931,0.012494,-0.040041,-0.122999
23.768971,0.007161,-0.041086,-0.124087
23.779012,0.020994,-0.047524,-0.127284
23.789021,0.034918,-0.026241,-0.120736
23.799062,0.029545,-0.037935,-0.128283
23.819112,0.027422,-0.037954,-0.122948
23.829122,0.050926,-0.015588,-0.125982
23.839162,0.024204,-0.046497,-0.120861
23.849216,-0.006754,-0.063473,-0.123163
23.859226,0.045573,-0.024114,-0.126037
23.869266,0.046639,-0.025196,-0.123903
23.899326,0.049844,-0.020919,-0.127079
23.899326,0.049844,-0.020919,-0.127079
23.909366,0.019932,-0.045379,-0.128345
23.919376,-0.008868,-0.058137,-0.121008
23.929416,0.032766,-0.029402,-0.128234
23.939457,0.038109,-0.026231,-0.125000
23.959507,0.015670,-0.047522,-0.124094
23.969516,0.032804,-0.016597,-0.126037
23.979557,0.018900,-0.033634,-0.127224
23.989567,-0.005682,-0.058112,-0.128476
23.999607,0.017863,-0.024024,-0.126113
24.009647,0.043485,-0.010239,-0.122773
24.019657,-0.003506,-0.042100,-0.128394
24.029697,-0.003512,-0.045313,-0.126273
24.039707,0.028524,-0.022991,-0.126079
24.049747,0.022117,-0.026164,-0.128248
24.059757,-0.000288,-0.037869,-0.121956
24.069797,0.010349,-0.042145,-0.128356
24.079837,0.027449,-0.026191,-0.126097
24.089847,0.012505,-0.035764,-0.124047
24.099888,-0.010982,-0.046337,-0.130572
24.109897,0.023151,-0.040070,-0.124038
24.119938,0.030649,-0.025134,-0.126083
24.129947,0.000744,-0.048536,-0.125209
24.139988,-0.006699,-0.043182,-0.123067
24.149997,0.031711,-0.026200,-0.127154
24.170078,-0.012063,-0.053824,-0.127405
24.170078,-0.012063,-0.053824,-0.127405
24.180088,0.019955,-0.038987,-0.125110
24.190128,0.038131,-0.018760,-0.123896
24.200138,-0.002430,-0.041060,-0.123045
24.210178,-0.022721,-0.055946,-0.123172
24.220188,0.025316,-0.027257,-0.125040
24.250278,-0.000316,-0.047475,-0.123070
24.250278,-0.000316,-0.047475,-0.123070
24.260318,0.026399,-0.024082,-0.119681
24.270328,0.024249,-0.028327,-0.123980
24.280369,0.010356,-0.044321,-0.119821
24.290378,0.000761,-0.045358,-0.119852
24.330509,0.027450,-0.030503,-0.117572
24.330509,0.027450,-0.030503,-0.117572
24.340519,0.042405,-0.018810,-0.116407
24.350559,0.008238,-0.040047,-0.118738
24.360569,0.003959,-0.046446,-0.117712
24.390659,0.002892,-0.045365,-0.119847
24.390659,0.002892,-0.045365,-0.119847
24.400699,0.016760,-0.042216,-0.117657
24.410709,0.050943,-0.014566,-0.116363
24.420749,0.021038,-0.037968,-0.115489
24.430759,-0.006724,-0.056028,-0.116719
24.460849,-0.007783,-0.052816,-0.117775
24.460849,-0.007783,-0.052816,-0.117775
24.470890,-0.000274,-0.035758,-0.116605
24.480900,0.044541,-0.016676,-0.117459
24.490940,0.022118,-0.031554,-0.117592
24.500950,-0.001372,-0.047502,-0.116664
24.531040,0.008254,-0.035791,-0.115514
24.531040,0.008254,-0.035791,-0.115514
24.541050,0.022103,-0.040123,-0.112291
24.551090,0.033863,-0.026273,-0.113261
24.561130,0.023201,-0.029457,-0.110101
24.571140,0.011423,-0.048637,-0.111293
24.611240,0.003974,-0.044341,-0.111293
24.611240,0.003974,-0.044341,-0.111293
24.621280,0.036016,-0.020960,-0.108957
24.631321,0.023205,-0.027316,-0.111159
24.641330,-0.006669,-0.042200,-0.104903
24.661380,0.015792,-0.012361,-0.106836
24.671421,0.006125,-0.039023,-0.108057
24.681431,0.010414,-0.033733,-0.100543
24.691471,-0.000202,-0.016596,-0.103696
24.701511,0.000797,-0.041162,-0.103809
24.711521,0.008301,-0.026245,-0.101581
24.731571,-0.000248,-0.034761,-0.101645
24.741611,0.008300,-0.028396,-0.098387
24.751621,0.014666,-0.039096,-0.098420
24.761661,0.017882,-0.032704,-0.097313
24.771671,0.009393,-0.020944,-0.094076
24.781711,0.002916,-0.049748,-0.096366
24.811802,0.012574,-0.026289,-0.095161
24.821811,-0.002375,-0.035847,-0.096315
24.831852,0.016813,-0.035920,-0.094126
24.841861,0.017951,-0.014610,-0.084408
24.851956,-0.010876,-0.029437,-0.090967
24.872006,0.022189,-0.019928,-0.091899
24.872006,0.022189,-0.019928,-0.091899
24.882046,0.004051,-0.028428,-0.088785
24.892056,0.003003,-0.022017,-0.088758
24.902096,0.015802,-0.019933,-0.086576
24.912106,0.001957,-0.017767,-0.083399
24.922146,-0.000182,-0.014506,-0.094072
24.952236,-0.001291,-0.033755,-0.087757
24.952236,-0.001291,-0.033755,-0.087757
24.962246,0.027595,0.004586,-0.085359
24.972287,0.004049,-0.031652,-0.084527
24.982296,-0.000205,-0.031668,-0.078130
24.992337,0.020086,-0.015705,-0.080135
25.012387,0.013659,-0.025276,-0.084471
25.022427,0.011547,-0.021022,-0.079115
25.032437,0.001911,-0.035932,-0.081349
25.042477,0.020072,-0.023201,-0.075897
25.052487,0.023275,-0.021075,-0.075879
25.062527,-0.006610,-0.038075,-0.073905
25.082577,0.015804,-0.023172,-0.079114
25.092617,-0.000198,-0.030611,-0.075989
25.102627,-0.006600,-0.033799,-0.074953
25.112667,0.022207,-0.024296,-0.071624
25.122677,-0.000175,-0.023145,-0.073817
25.132717,-0.009814,-0.040201,-0.073924
25.162777,-0.008736,-0.035933,-0.073901
25.172818,0.000878,-0.028493,-0.072771
25.182858,-0.006594,-0.033819,-0.070680
25.192868,-0.006594,-0.033819,-0.070680
25.202908,0.007281,-0.029618,-0.065281
25.222958,-0.002355,-0.044527,-0.067515
25.232968,0.003019,-0.028531,-0.066356
25.243008,0.011503,-0.042426,-0.069603
25.253048,-0.000197,-0.034923,-0.067463
25.263058,0.002982,-0.041341,-0.067485
25.273098,0.006198,-0.037100,-0.063183
25.293148,-0.001267,-0.039216,-0.062145
25.303158,-0.008731,-0.039182,-0.064302
25.313198,0.007282,-0.027467,-0.068475
25.323239,0.013704,-0.018954,-0.066281
25.333248,-0.015112,-0.034895,-0.063231
25.343289,-0.004470,-0.040264,-0.064296
25.363339,0.010502,-0.021085,-0.065232
25.373349,-0.006583,-0.033854,-0.063203
25.383389,-0.011916,-0.035978,-0.062160
25.393399,-0.002302,-0.028539,-0.061030
25.403439,0.009415,-0.030708,-0.062076
25.413479,0.012642,-0.016810,-0.067342
25.443539,0.020095,-0.024350,-0.058811
25.453579,0.022227,-0.025435,-0.056674
25.463589,0.001931,-0.041383,-0.057874
25.473629,0.005152,-0.035006,-0.053562
25.483670,0.017941,-0.032891,-0.057790
25.503720,0.010491,-0.029668,-0.056727
25.503720,0.010491,-0.029668,-0.056727
25.513729,0.005154,-0.033933,-0.054625
25.523770,0.013669,-0.036081,-0.057816
25.533779,0.020130,-0.012613,-0.056619
25.543820,0.006181,-0.046741,-0.056819
25.553829,0.003032,-0.029649,-0.055679
25.573910,0.003027,-0.032863,-0.053558
25.583920,-0.008717,-0.041379,-0.051494
25.593960,0.010547,-0.014763,-0.047042
25.603970,0.012657,-0.019011,-0.053466
25.614010,-0.006587,-0.042459,-0.050425
25.624020,-0.002301,-0.032851,-0.052504
25.644100,0.012634,-0.029711,-0.049243
25.644100,0.012634,-0.029711,-0.049243
25.654110,0.000883,-0.040357,-0.048258
25.664151,0.010504,-0.029709,-0.048181
25.674160,0.015815,-0.036134,-0.048197
25.684201,0.008412,-0.016902,-0.044922
25.694210,-0.004443,-0.039272,-0.048268
25.714291,0.004132,-0.020067,-0.050290
25.724301,0.004116,-0.026479,-0.049252
25.734341,-0.012900,-0.013614,-0.048170
25.744351,-0.000177,-0.038218,-0.048251
25.754391,-0.001192,-0.017908,-0.051362
25.764401,0.015858,-0.022266,-0.044926
25.784451,0.004110,-0.031844,-0.043936
25.794491,0.009499,-0.012664,-0.038489
25.804531,-0.009732,-0.028611,-0.040754
25.814541,0.002000,-0.023289,-0.044970
25.824581,0.014839,-0.009483,-0.037391
25.834591,-0.007586,-0.022200,-0.042855
25.854668,-0.004352,-0.010478,-0.039585
25.864709,-0.007570,-0.017943,-0.039630
25.874749,-0.011846,-0.023274,-0.038599
25.884759,0.003102,-0.013711,-0.038512
25.894799,-0.001180,-0.022256,-0.035360
25.904809,-0.010761,-0.016875,-0.037497
25.934899,0.001991,-0.032956,-0.033265
25.944939,-0.002223,-0.015860,-0.032128
25.954949,0.003088,-0.022285,-0.032143
25.964989,-0.007570,-0.022250,-0.032173
25.974999,-0.019308,-0.029708,-0.027967
25.985039,-0.011829,-0.020096,-0.033242
25.995049,0.002086,-0.000938,-0.028840
26.005089,-0.011842,-0.026518,-0.030068
26.015099,-0.026760,-0.024324,-0.032235
26.025139,-0.000078,-0.012679,-0.028902
26.035180,-0.005403,-0.009442,-0.032106
26.045189,-0.002255,-0.029763,-0.027921
26.065240,0.002006,-0.033001,-0.023651
26.075280,0.008450,-0.015945,-0.021416
26.085290,0.013743,-0.029851,-0.020399
26.095330,0.006303,-0.021273,-0.022516
26.105370,0.008431,-0.025577,-0.017189
26.115380,0.004164,-0.025553,-0.019337
26.145470,-0.003272,-0.019141,-0.015055
26.155480,-0.001131,-0.013794,-0.018228
26.165520,0.001023,-0.006330,-0.017119
26.175530,-0.007542,-0.019107,-0.019339
26.185570,-0.017082,-0.003083,-0.013949
26.205620,-0.007528,-0.015919,-0.016119
26.215661,-0.007508,-0.009521,-0.013953
26.225670,0.007419,-0.007434,-0.013901
26.235711,-0.005412,-0.024494,-0.010813
26.245720,-0.011806,-0.022323,-0.014025
26.255761,0.024467,-0.012859,-0.007471
26.275811,0.002010,-0.039480,-0.008727
26.285851,0.005262,-0.019194,-0.009690
26.295861,0.006313,-0.025616,-0.007581
26.305901,-0.002200,-0.020243,-0.008648
26.315911,0.008448,-0.025633,-0.005439
26.325951,-0.014997,-0.024489,-0.005498
26.356042,-0.004303,-0.011708,-0.005408
26.366051,-0.012869,-0.026636,-0.004434
26.376092,-0.022458,-0.025537,-0.004456
26.386101,-0.007501,-0.011698,-0.005417
26.396142,-0.001117,-0.017068,-0.003288
26.406151,-0.017113,-0.020220,-0.003348
26.416192,-0.003229,-0.012815,0.002067
26.426232,-0.016050,-0.021291,-0.003350
26.436242,-0.017103,-0.018099,-0.000133
26.446282,0.001047,-0.006406,-0.001096
26.456292,-0.005365,-0.013871,0.000988
26.466332,-0.025654,-0.027688,0.000866
26.486382,0.011717,-0.003247,0.001085
26.496422,-0.018138,-0.006344,-0.001148
26.506432,-0.034167,-0.023394,0.001931
26.516472,-0.011750,-0.010651,0.002054
26.526482,-0.005348,-0.006385,-0.001113
26.536523,-0.017070,-0.006352,-0.000077
26.556573,-0.023497,-0.018079,-0.000150
26.566613,-0.004297,-0.012806,0.000996
26.566613,-0.004297,-0.012806,0.000996
26.586663,-0.018187,-0.025576,0.000897
26.596673,-0.014968,-0.015960,-0.002253
26.606713,-0.001095,-0.012832,0.004209
26.636773,-0.014949,-0.011714,0.003108
26.636773,-0.014949,-0.011714,0.003108
26.656853,0.001059,-0.006446,0.007450
26.656853,0.001059,-0.006446,0.007450
26.676903,-0.017113,-0.022376,0.000915
26.696953,0.002118,-0.004274,-0.001083
26.696953,0.002118,-0.004274,-0.001083
26.717003,-0.006396,-0.001052,0.001046
26.727044,0.011689,-0.015009,0.004234
26.737054,-0.017109,-0.022386,0.003051
26.737054,-0.017109,-0.022386,0.003051
26.757104,-0.006426,-0.009575,-0.003268
26.777154,-0.023480,-0.011671,-0.000120
26.777154,-0.023480,-0.011671,-0.000120
26.797204,-0.013892,-0.013843,0.000964
26.797204,-0.013892,-0.013843,0.000964
26.807244,0.006356,-0.016055,0.003146
26.817284,-0.011810,-0.033083,0.003015
26.827294,-0.002197,-0.026717,0.005209
26.857413,0.004229,-0.016063,0.006345
26.857413,0.004229,-0.016063,0.006345
26.867423,-0.012871,-0.032017,0.004086
26.877463,-0.002207,-0.028837,0.001994
26.887504,0.007446,-0.007520,0.004258
26.897513,-0.022429,-0.020243,0.005183
26.927604,-0.010680,-0.009592,0.003130
26.927604,-0.010680,-0.009592,0.003130
26.937614,-0.026680,-0.014885,0.004129
26.947654,-0.013917,-0.023460,0.001987
26.957694,-0.006432,-0.016018,0.004179
26.967704,-0.012798,-0.006396,0.006344
27.007804,-0.005362,-0.014959,0.005255
27.007804,-0.005362,-0.014959,0.005255
27.017844,-0.017090,-0.018140,0.008413
27.027854,-0.007507,-0.019219,0.004161
27.037894,0.005294,-0.014989,0.004217
27.057944,-0.012836,-0.019201,0.004147
27.057944,-0.012836,-0.019201,0.004147
27.067985,-0.021334,-0.010645,0.007368
27.077994,-0.023497,-0.019157,0.001981
27.088035,-0.024533,-0.010630,0.006291
27.098044,-0.019200,-0.006350,0.000985
27.108085,-0.019237,-0.020238,0.001988
27.138175,-0.013914,-0.021314,-0.000139
27.138175,-0.013914,-0.021314,-0.000139
27.148185,-0.011743,-0.010672,0.006326
27.158225,-0.016062,-0.026641,-0.001239
27.168235,-0.003218,-0.011772,0.007413
27.178275,-0.017110,-0.020230,-0.001211
27.208365,-0.012829,-0.015993,0.003094
27.208365,-0.012829,-0.015993,0.003094
27.218375,-0.026743,-0.037306,0.002954
27.228416,0.009566,-0.009643,-0.000019
27.238425,0.009601,0.001017,0.004304
27.248466,-0.041677,-0.041524,0.001825
27.278556,-0.017142,-0.033055,0.000864
27.278556,-0.017142,-0.033055,0.000864
27.288566,-0.044824,-0.024437,0.004033
27.298606,-0.002178,-0.018158,0.002045
27.308616,-0.002153,-0.009620,0.003153
27.318656,-0.013892,-0.014921,0.003096
27.348746,0.015983,-0.005427,0.007496
27.348746,0.015983,-0.005427,0.007496
27.358756,0.007413,-0.020340,0.005265
27.368796,-0.013933,-0.033101,0.008351
27.378806,0.005283,-0.021416,0.008459
27.388846,0.019160,-0.012913,0.007469
27.418906,-0.001087,-0.010701,0.005287
27.418906,-0.001087,-0.010701,0.005287
27.428947,-0.003242,-0.021394,0.009504
27.438987,-0.008580,-0.022424,0.005211
27.448997,-0.009619,-0.014965,0.009517
27.459037,-0.002149,-0.008557,0.004226
27.479087,-0.016019,-0.017080,0.009489
27.479087,-0.016019,-0.017080,0.009489
27.489097,0.004235,-0.015005,0.008486
27.499137,0.002128,-0.005382,0.007458
27.509177,-0.011803,-0.033103,0.007288
27.519187,-0.011737,-0.009614,0.008468
27.529227,0.013862,-0.002221,0.008574
27.559287,-0.001071,-0.004288,0.004250
27.559287,-0.001071,-0.004288,0.004250
27.569327,0.033039,-0.005493,0.009679
27.579368,-0.028811,-0.017034,0.008385
27.589377,-0.026718,-0.031997,0.009389
27.599418,0.005349,0.003151,0.007507
27.619468,-0.025609,-0.015981,0.009468
27.629478,-0.007532,-0.027757,0.003053
27.639518,-0.007482,-0.011758,0.007401
27.649528,-0.000047,-0.022472,0.009507
27.659568,-0.020267,-0.008498,0.004177
27.669608,0.002050,-0.032065,0.004127
27.689658,-0.003274,-0.032063,0.007317
27.699668,-0.006410,-0.010704,0.009546
27.709708,0.008462,-0.028907,0.009501
27.719718,-0.012844,-0.025639,0.010525
27.729758,0.020194,-0.025742,0.009548
27.739799,0.002136,-0.005407,0.012799
27.769858,0.015984,-0.007583,0.011759
27.769858,0.015984,-0.007583,0.011759
27.779899,0.003186,-0.012901,0.015971
27.789908,-0.013917,-0.028845,0.011575
27.799949,-0.010683,-0.016045,0.012713
27.809989,0.018123,-0.005459,0.012843
27.830039,-0.025630,-0.027764,0.016889
27.840049,-0.017082,-0.019243,0.015885
27.850089,0.005334,-0.005418,0.012808
27.860122,-0.009595,-0.009656,0.015951
27.870162,-0.007506,-0.024609,0.014818
27.880172,-0.002156,-0.019307,0.019131
27.910262,0.004244,-0.018265,0.020221
27.910262,0.004244,-0.018265,0.020221
27.920303,0.001066,-0.011852,0.021311
27.930312,-0.001154,-0.042805,0.019022
27.940353,0.006398,-0.011879,0.023462
27.950362,0.011716,-0.014017,0.020262
27.970443,0.001082,-0.007595,0.024536
27.980453,0.018090,-0.021514,0.020244
27.990493,-0.004265,-0.012908,0.022360
28.000503,0.003182,-0.017198,0.021292
28.010543,0.001085,-0.005449,0.022410
28.020553,0.009569,-0.022579,0.025557
28.050643,0.011768,0.003054,0.023548
28.060683,0.007477,-0.007616,0.024554
28.070693,-0.022432,-0.031009,0.023292
28.080733,0.005346,-0.009765,0.028810
28.090743,-0.001031,-0.000108,0.023497
28.120834,0.006404,-0.010821,0.025604
28.120834,0.006404,-0.010821,0.025604
28.130874,-0.018131,-0.020368,0.028695
28.140884,-0.014931,-0.017155,0.024446
28.150924,0.002155,-0.004390,0.023486
28.160934,0.004268,-0.012955,0.026656
28.180984,-0.017095,-0.027817,0.022254
28.180984,-0.017095,-0.027817,0.022254
28.191024,0.003202,-0.011874,0.024522
28.201064,-0.001057,-0.008641,0.021320
28.211074,-0.010703,-0.031062,0.026529
28.221114,-0.010680,-0.021440,0.024438
28.231124,0.009573,-0.020438,0.024499
28.251174,-0.006433,-0.026789,0.023356
28.261214,-0.022368,-0.008587,0.024466
28.271224,0.008500,-0.023644,0.025549
28.281264,-0.005310,-0.005429,0.022392
28.291305,-0.000018,-0.018256,0.021278
28.301314,-0.004255,-0.007553,0.019180
28.331405,-0.003179,-0.003279,0.018135
28.341415,0.010671,-0.007616,0.022426
28.351455,-0.001044,-0.004375,0.022409
28.361495,-0.003200,-0.013984,0.023426
28.371505,0.006418,-0.005482,0.025629
28.391555,0.003200,-0.010791,0.021322
28.401595,0.000027,-0.004393,0.025616
28.411605,-0.007441,-0.006500,0.024518
28.421645,0.008531,-0.011891,0.024536
28.431686,-0.007412,0.005258,0.022437
28.441695,0.009583,-0.015083,0.021319
28.461745,-0.007480,-0.017149,0.018058
28.471786,-0.010639,-0.005411,0.022377
28.481795,0.003204,-0.007572,0.018133
28.491836,-0.002133,-0.012914,0.022365
28.501845,-0.019208,-0.020330,0.021215
28.511886,-0.008558,-0.022495,0.020166
28.541976,-0.022411,-0.022455,0.021196
28.551986,-0.003221,-0.020381,0.021259
28.562026,0.005330,-0.009715,0.018128
28.572036,-0.016017,-0.020320,0.016951
28.582076,-0.023462,-0.013883,0.015893
28.602126,-0.003197,-0.007531,0.013842
28.612167,-0.021375,-0.027753,0.011560
28.622176,-0.034133,-0.017037,0.012644
28.632217,-0.004283,-0.011774,0.008478
28.642226,-0.015990,-0.008557,0.013802
28.652267,-0.024564,-0.025611,0.012630
28.672317,-0.000013,-0.011808,0.012763
28.682357,-0.009641,-0.023514,0.010544
28.692367,-0.014993,-0.032040,0.010489
28.702407,-0.008563,-0.020324,0.012699
28.712417,-0.009648,-0.024567,0.007335
28.722457,0.002078,-0.026766,0.012698
28.752547,-0.011750,-0.014958,0.009511
28.752547,-0.011750,-0.014958,0.009511
28.762557,0.012729,-0.026780,0.008454
28.772597,-0.012865,-0.032037,0.008359
28.782607,0.007379,-0.033160,0.006273
28.792647,0.008486,-0.019291,0.008478
28.822738,0.010628,-0.013943,0.005304
28.822738,0.010628,-0.013943,0.005304
28.832748,0.000982,-0.030978,0.000924
28.842788,-0.012867,-0.028798,0.000896
28.852826,0.002084,-0.019245,0.003119
28.862866,-0.014966,-0.017043,0.000946
28.892926,-0.008588,-0.020243,-0.004392
28.892926,-0.008588,-0.020243,-0.004392
28.902966,-0.018192,-0.024483,-0.004439
28.913006,-0.001150,-0.027737,-0.005475
28.923016,0.006354,-0.013894,-0.002185
28.933056,-0.008604,-0.023426,-0.008680
28.953106,0.002085,-0.011709,-0.009664
28.963116,-0.009670,-0.025574,-0.005489
28.973156,-0.008612,-0.027708,-0.006564
28.983197,0.014862,-0.017095,-0.008585
28.993207,-0.007510,-0.014901,-0.005432
29.003247,-0.004363,-0.030911,-0.009772
29.023297,0.010593,-0.021373,-0.004345
29.033307,0.006337,-0.018150,-0.005409
29.043347,0.011651,-0.023507,-0.005420
29.053387,0.005262,-0.024580,-0.000102
29.063397,-0.000072,-0.024547,-0.003321
29.073437,0.015929,-0.019259,-0.003252
29.103497,-0.001090,-0.005306,-0.006437
29.103497,-0.001090,-0.005306,-0.006437
29.113537,-0.016073,-0.027684,-0.006585
29.123547,-0.033080,-0.009458,-0.009750
29.133587,-0.004296,-0.008499,-0.006461
29.143628,-0.023485,-0.009500,-0.007587
29.163678,-0.005373,-0.009538,-0.011810
29.173687,-0.005371,-0.009543,-0.010742
29.183728,-0.005376,-0.010606,-0.011815
29.193738,-0.011800,-0.022343,-0.009752
29.203778,-0.013912,-0.014855,-0.010791
29.213818,0.012724,-0.020302,-0.006470
29.223828,0.007434,-0.004250,-0.009613
29.233868,-0.008617,-0.026615,-0.011900
29.243878,-0.002188,-0.015972,-0.008627
29.253918,-0.011786,-0.014847,-0.013990
29.263928,-0.007541,-0.022342,-0.012945
29.273968,0.003155,-0.008493,-0.012850
29.284009,-0.008594,-0.018071,-0.011860
29.294018,-0.030985,-0.019046,-0.016199
29.304059,-0.002196,-0.018102,-0.009706
29.314068,-0.004315,-0.011673,-0.012886
29.324109,-0.021402,-0.021203,-0.018319
29.334118,-0.019259,-0.019090,-0.015099
29.344159,-0.028862,-0.021179,-0.018340
29.354168,-0.005436,-0.031960,-0.012985
29.384259,-0.017161,-0.035151,-0.007691
29.394299,0.010579,-0.022405,-0.011827
29.404309,0.008418,-0.032000,-0.014015
29.414349,-0.001160,-0.025551,-0.016147
29.424359,0.006327,-0.018120,-0.011819
29.444439,-0.003267,-0.020235,-0.009719
29.454449,0.012682,-0.029863,-0.017198
29.464489,-0.004353,-0.024478,-0.015083
29.474499,0.009519,-0.021344,-0.009689
29.484540,-0.001124,-0.015970,-0.009693
29.494549,-0.012913,-0.037270,-0.014099
29.514599,0.018063,-0.012808,-0.013897
29.524640,-0.020349,-0.026551,-0.017273
29.534680,-0.021420,-0.030840,-0.013024
29.544690,0.006354,-0.008509,-0.011773
29.554730,-0.016070,-0.021231,-0.016168
29.564740,-0.025704,-0.037224,-0.015202
29.584790,0.011676,-0.008506,-0.016031
29.594830,-0.025673,-0.026549,-0.014083
29.604870,-0.011831,-0.033017,-0.010871
29.614880,0.008482,-0.008505,-0.013904
29.624920,0.015923,-0.013854,-0.017113
29.634930,-0.021433,-0.035107,-0.014112
29.665020,-0.023556,-0.030818,-0.016234
29.675061,-0.005373,-0.010616,-0.009679
29.685071,-0.000041,-0.007410,-0.013922
29.695111,-0.012907,-0.035134,-0.014089
29.705121,0.002030,-0.029848,-0.012954
29.725171,0.006331,-0.019208,-0.007551
29.735211,0.006306,-0.026668,-0.010791
29.745221,0.007372,-0.027750,-0.008657
29.755261,0.008427,-0.028796,-0.014000
29.765301,0.003136,-0.015974,-0.011817
29.775311,-0.002222,-0.028792,-0.007620
29.795361,0.000986,-0.020218,-0.016116
29.805401,-0.007553,-0.026613,-0.012965
29.815411,-0.024594,-0.021208,-0.015123
29.825451,-0.004377,-0.031943,-0.017255
29.835492,0.014893,-0.003192,-0.012792
29.845501,-0.011803,-0.020177,-0.016151
29.865576,-0.005387,-0.012727,-0.015030
29.875617,0.015909,-0.020272,-0.015007
29.885627,-0.005422,-0.025542,-0.015091
29.895667,-0.009667,-0.020199,-0.012941
29.905707,-0.000087,-0.023424,-0.015066
29.915717,0.003128,-0.017026,-0.015027
29.945807,0.010600,-0.011701,-0.017117
29.955817,0.002054,-0.020227,-0.015045
29.965857,-0.018199,-0.018000,-0.020432
29.975867,-0.011855,-0.039404,-0.015174
29.985907,-0.013914,-0.013772,-0.013990
30.005957,-0.017160,-0.030844,-0.015148
30.015998,-0.012897,-0.030858,-0.015137
30.026007,0.003114,-0.022366,-0.015052
30.036048,-0.006487,-0.026617,-0.012962
30.046057,-0.009647,-0.012723,-0.012905
30.056098,-0.000076,-0.020225,-0.013983
30.076148,-0.014984,-0.015910,-0.012935
30.086188,-0.024618,-0.028673,-0.017295
30.096198,-0.001131,-0.015950,-0.013965
30.106238,-0.006461,-0.017005,-0.012917
30.116248,-0.007541,-0.022342,-0.012945
30.126288,-0.017146,-0.024426,-0.017254
30.136328,-0.022485,-0.029763,-0.014090
30.146338,0.008500,-0.002098,-0.013873
30.156378,0.000976,-0.024495,-0.015068
30.166388,-0.019262,-0.022314,-0.010841
30.176429,-0.000116,-0.036259,-0.010854
30.186438,-0.000085,-0.024507,-0.011867
30.196479,0.038315,-0.015035,-0.008511
30.206488,-0.004370,-0.033041,-0.010851
30.216529,-0.004380,-0.037318,-0.009803
30.226569,0.021245,-0.021387,-0.008588
30.236579,0.010563,-0.029896,-0.008658
30.246619,-0.007559,-0.029827,-0.010844
30.256629,0.005236,-0.024499,-0.017193
30.266669,-0.009678,-0.025549,-0.010830
30.276679,-0.007559,-0.029827,-0.010844
30.286719,-0.004348,-0.025571,-0.009747
30.296759,-0.003284,-0.024491,-0.012943
30.306769,0.009528,-0.018140,-0.009673
30.316809,-0.005424,-0.029844,-0.008702
30.326819,0.002000,-0.042678,-0.009810
30.336859,0.028725,-0.012858,-0.010664
30.346869,0.027641,-0.017106,-0.014960
30.356909,-0.005428,-0.031985,-0.007644
30.366919,0.013766,-0.026693,-0.010770
30.376960,0.015917,-0.020297,-0.009666
30.387000,0.009496,-0.030966,-0.007598
30.387000,0.009496,-0.030966,-0.007598
30.407050,0.016977,-0.022436,-0.009673
30.417060,0.018055,-0.016017,-0.012844
30.427100,0.000972,-0.027714,-0.011879
30.427100,0.000972,-0.027714,-0.011879
30.447150,0.017043,0.002131,-0.010625
30.457190,-0.009651,-0.014864,-0.011847
30.457190,-0.009651,-0.014864,-0.011847
30.467200,-0.017156,-0.028703,-0.016206
30.477240,-0.009664,-0.018053,-0.015067
30.497290,0.004231,-0.005298,-0.011764
30.497290,0.004231,-0.005298,-0.011764
30.517340,-0.020337,-0.024436,-0.012990
30.517340,-0.020337,-0.024436,-0.012990
30.527381,0.002070,-0.015970,-0.011820
30.537390,-0.000103,-0.030914,-0.011897
30.547431,-0.020320,-0.019101,-0.011897
30.577491,-0.015019,-0.030881,-0.008733
30.577491,-0.015019,-0.030881,-0.008733
30.587531,-0.012928,-0.041532,-0.016255
30.597541,-0.000060,-0.015968,-0.010758
30.607581,-0.022502,-0.037249,-0.011989
30.617621,-0.006512,-0.035155,-0.014071
30.647681,-0.012882,-0.027674,-0.010849
30.647681,-0.012882,-0.027674,-0.010849
30.657721,-0.012887,-0.030888,-0.008727
30.667731,-0.013950,-0.028738,-0.010857
30.677771,0.003124,-0.019167,-0.013969
30.687812,-0.005399,-0.019150,-0.011856
30.717871,0.018055,-0.014939,-0.014976
30.717871,0.018055,-0.014939,-0.014976
30.727912,-0.000068,-0.020250,-0.008642
30.737921,-0.010800,-0.046914,-0.008797
30.747962,0.022314,-0.021401,-0.006449
30.758002,0.019081,-0.033128,-0.008650
30.788062,0.025499,-0.025683,-0.006460
30.788062,0.025499,-0.025683,-0.006460
30.798102,-0.001160,-0.027707,-0.011885
30.808112,-0.003335,-0.045875,-0.007704
30.818152,-0.009684,-0.029840,-0.006577
30.828162,0.004159,-0.030923,-0.012953
30.858273,-0.021434,-0.037258,-0.010918
30.858273,-0.021434,-0.037258,-0.010918
30.868314,0.012709,-0.024563,-0.008627
30.878323,0.000972,-0.027714,-0.011879
30.888364,-0.015024,-0.034095,-0.006612
30.898373,0.015895,-0.027767,-0.010770
30.938504,0.013765,-0.029922,-0.005445
30.938504,0.013765,-0.029922,-0.005445
30.948514,-0.012896,-0.036248,-0.004480
30.958554,-0.000111,-0.037352,-0.005518
30.968564,0.005211,-0.039500,-0.006582
30.998654,-0.002227,-0.032006,-0.005499
30.998654,-0.002227,-0.032006,-0.005499
31.008694,-0.016152,-0.057596,-0.004590
31.018704,0.007344,-0.039512,-0.005508
31.028744,-0.002225,-0.029860,-0.007625
31.038754,-0.026802,-0.051123,-0.010998
31.068845,-0.012950,-0.054387,-0.007771
31.068845,-0.012950,-0.054387,-0.007771
31.078885,-0.007570,-0.035177,-0.008733
31.088895,0.004148,-0.038429,-0.006580
31.098935,-0.008645,-0.038377,-0.008751
31.108945,-0.010786,-0.042647,-0.007709
31.128995,0.003084,-0.034123,-0.012971
31.139035,-0.025694,-0.038332,-0.006662
31.149075,-0.026775,-0.042590,-0.008821
31.159085,0.009482,-0.034154,-0.010817
31.169125,0.005307,-0.002103,-0.010677
31.179135,-0.010820,-0.053311,-0.010964
31.199185,0.014872,-0.012818,-0.009633
31.209225,0.003111,-0.026668,-0.008663
31.219235,-0.019256,-0.020178,-0.010831
31.229275,-0.010746,-0.025540,-0.011901
31.239316,-0.015010,-0.027677,-0.008718
31.249326,-0.007500,-0.008469,-0.010743
31.279416,-0.010763,-0.033026,-0.009800
31.279416,-0.010763,-0.033026,-0.009800
31.289426,-0.003258,-0.018109,-0.007572
31.299466,-0.003264,-0.020245,-0.007582
31.309506,-0.017166,-0.038365,-0.005570
31.319516,0.011667,-0.016017,-0.008589
31.339566,-0.022528,-0.047938,-0.009903
31.349606,-0.010715,-0.015944,-0.008651
31.359616,-0.001108,-0.011713,-0.006468
31.369656,-0.040592,-0.027584,-0.010925
31.379697,-0.016082,-0.028732,-0.010863
31.389706,-0.005351,-0.003146,-0.008575
31.419797,-0.020273,-0.003092,-0.009685
31.419797,-0.020273,-0.003092,-0.009685
31.429806,-0.040611,-0.031835,-0.015218
31.439847,-0.030993,-0.024406,-0.011951
31.449857,-0.019264,-0.021230,-0.014040
31.459897,-0.031054,-0.044682,-0.015252
31.479947,-0.008596,-0.021295,-0.007602
31.479947,-0.008596,-0.021295,-0.007602
31.489987,-0.027848,-0.044717,-0.009902
31.499997,-0.002233,-0.030912,-0.010835
31.510037,0.008469,-0.018157,-0.005404
31.520047,-0.020369,-0.040490,-0.005589
31.530087,-0.007571,-0.036250,-0.007670
31.550137,-0.003288,-0.028788,-0.007623
31.560178,-0.009673,-0.026642,-0.005494
31.570187,-0.006466,-0.023453,-0.004402
31.580228,-0.003293,-0.033080,-0.003370
31.590237,-0.008574,-0.013825,-0.006498
31.600278,0.010574,-0.027775,-0.005443
31.630368,0.001033,-0.010673,-0.002184
31.630368,0.001033,-0.010673,-0.002184
31.640378,-0.016066,-0.024475,-0.007638
31.650418,-0.004346,-0.026654,-0.006547
31.660428,0.006400,0.003193,-0.002104
31.670468,-0.004332,-0.020236,-0.008653
31.690518,0.003196,0.004302,-0.008517
31.700558,0.002084,-0.012782,-0.008600
31.710568,-0.020333,-0.026602,-0.006591
31.720608,-0.013914,-0.014850,-0.011859
31.730618,0.012775,0.000004,-0.009579
31.740659,0.006339,-0.014926,-0.009667
31.760709,-0.007543,-0.023415,-0.011882
31.770749,0.020252,0.005314,-0.008465
31.780759,-0.006465,-0.021302,-0.007596
31.790799,-0.014991,-0.022353,-0.005488
31.800809,-0.000074,-0.023464,-0.006520
31.810849,-0.017110,-0.014845,-0.010800
31.830899,0.007427,-0.007459,-0.008560
31.840909,-0.016058,-0.022344,-0.006559
31.850949,-0.019261,-0.024470,-0.006578
31.861006,0.009545,-0.010655,-0.011774
31.871016,-0.003233,-0.009571,-0.006463
31.881056,-0.012858,-0.020209,-0.008677
31.911116,0.010638,-0.003203,-0.007463
31.911116,0.010638,-0.003203,-0.007463
31.921156,-0.005420,-0.030932,-0.004434
31.931197,-0.028849,-0.023376,-0.005531
31.941207,0.022321,-0.018192,-0.007502
31.951247,-0.003238,-0.011712,-0.005405
31.981307,-0.004327,-0.018095,-0.009711
31.981307,-0.004327,-0.018095,-0.009711
31.991347,-0.002190,-0.015966,-0.009696
32.001387,0.020182,-0.021394,-0.006455
32.011397,-0.006457,-0.018094,-0.008649
32.021437,-0.010758,-0.034119,-0.004464
32.051497,-0.003264,-0.021323,-0.005451
32.051497,-0.003264,-0.021323,-0.005451
32.061537,-0.012864,-0.023423,-0.006556
32.071547,0.003144,-0.015999,-0.006476
32.081587,0.012751,-0.006383,-0.013882
32.091628,0.010607,-0.012799,-0.010713
32.121687,0.006340,-0.017082,-0.005404
32.121687,0.006340,-0.017082,-0.005404
32.131728,0.017045,-0.001108,-0.003163
32.141738,-0.010737,-0.024492,-0.007623
32.151778,-0.023541,-0.029790,-0.007683
32.161818,0.004240,-0.008557,-0.000029
32.181868,-0.031014,-0.035111,-0.006661
32.191878,0.005263,-0.023507,-0.001165
32.201918,0.005319,0.000013,-0.006395
32.211928,-0.025721,-0.047943,-0.006707
32.221968,-0.048042,-0.025439,-0.007731
32.232009,0.013790,-0.021383,-0.004336
32.262068,-0.031050,-0.046848,-0.008853
32.262068,-0.031050,-0.046848,-0.008853
32.272109,-0.013911,-0.014860,-0.009723
32.282118,-0.003273,-0.024527,-0.005466
32.292159,-0.023584,-0.046887,-0.005628
32.302168,-0.014001,-0.051200,-0.003486
32.322249,0.008409,-0.037360,-0.009767
32.332259,0.014832,-0.032081,-0.001179
32.342299,-0.020431,-0.063995,-0.003564
32.352309,-0.028955,-0.063972,-0.002519
32.362349,0.033998,-0.038551,-0.001157
32.372359,0.015915,-0.024599,-0.003277
32.402449,0.014802,-0.041682,-0.003361
32.412489,-0.006483,-0.030939,-0.002301
32.422499,-0.004391,-0.045902,-0.001297
32.432540,-0.007601,-0.051236,-0.000263
32.442549,-0.024647,-0.046894,-0.003495
32.472640,-0.005474,-0.053384,0.000801
32.472640,-0.005474,-0.053384,0.000801
32.482680,-0.017197,-0.054424,0.002900
32.492690,0.011628,-0.033129,-0.003329
32.502730,0.024437,-0.028924,0.002067
32.512740,0.009465,-0.047025,0.000872
32.522780,-0.010810,-0.056576,0.001839
32.532790,-0.003343,-0.055542,0.004001
32.542830,0.028708,-0.027885,0.005289
32.552870,0.013753,-0.038501,0.001992
32.562880,-0.025772,-0.066093,-0.007861
32.572920,-0.016091,-0.038399,0.000842
32.582930,-0.013973,-0.039438,-0.006634
32.613020,-0.005485,-0.053349,-0.006677
32.613020,-0.005485,-0.053349,-0.006677
32.623061,-0.017152,-0.036254,-0.000219
32.633071,-0.015048,-0.041560,-0.008784
32.643111,-0.002264,-0.046972,-0.002365
32.653121,-0.013971,-0.042677,0.000828
32.683211,-0.007561,-0.033051,-0.006587
32.683211,-0.007561,-0.033051,-0.006587
32.693251,-0.000149,-0.050157,-0.007715
32.703261,-0.023544,-0.037322,0.004031
32.713301,-0.022536,-0.054376,-0.003524
32.723311,0.003091,-0.040607,0.003021
32.753401,-0.050247,-0.053208,-0.005732
32.753401,-0.050247,-0.053208,-0.005732
32.763411,-0.001109,-0.012786,-0.005405
32.773451,-0.010740,-0.029867,-0.000171
32.783492,-0.058749,-0.043564,-0.006778
32.793501,-0.010749,-0.026608,-0.011906
32.813551,-0.048078,-0.042561,-0.000334
32.823592,-0.021400,-0.028750,-0.003400
32.833602,0.027700,-0.003289,-0.001007
32.843642,-0.028851,-0.027678,0.000858
32.853682,-0.026747,-0.037291,-0.000250
32.863729,0.008502,-0.010722,0.003177
32.883779,-0.018217,-0.034100,-0.003416
32.893819,-0.003241,-0.017087,0.002047
32.903829,-0.016004,-0.007434,0.002057
32.913869,0.006318,-0.026709,-0.002245
32.923879,-0.007482,-0.008524,0.001007
32.933919,-0.028864,-0.033022,0.001900
32.953969,-0.001097,-0.013900,0.004204
32.964010,-0.020323,-0.027710,0.001949
32.974019,0.003126,-0.026714,0.000950
32.984060,-0.016023,-0.014914,0.003090
32.994069,-0.012864,-0.027730,0.000901
33.004110,-0.004329,-0.024554,0.000940
33.034200,-0.011787,-0.023461,0.000925
33.044210,-0.016038,-0.019176,0.000933
33.054250,-0.015032,-0.040533,-0.000233
33.064260,-0.009656,-0.025619,0.004125
33.074300,0.005290,-0.018207,0.007406
33.094350,-0.006484,-0.032012,-0.001238
33.104390,0.008509,-0.008591,0.004256
33.114400,-0.029952,-0.041567,0.002925
33.124441,-0.015023,-0.039485,0.004045
33.134450,0.011708,-0.008607,0.005333
33.144491,-0.005402,-0.028837,0.004122
33.174581,-0.001095,-0.017139,0.011666
33.184591,0.006326,-0.029963,0.008421
33.194631,-0.007552,-0.038467,0.009411
33.204641,-0.003214,-0.011787,0.010617
33.214681,0.026615,-0.013995,0.005348
33.234731,-0.035206,-0.019164,0.011562
33.244771,0.009579,-0.010761,0.010658
33.254781,-0.026704,-0.024501,0.005151
33.264821,-0.007515,-0.023501,0.006277
33.274831,0.005366,0.005251,0.014995
33.284871,-0.041653,-0.034059,0.003997
33.314962,-0.028834,-0.020192,-0.001243
33.324972,-0.050169,-0.031911,0.007188
33.335012,-0.026629,0.002192,0.006346
33.345022,-0.011764,-0.017069,0.004160
33.355062,-0.037333,-0.013787,0.005173
33.375112,-0.030901,-0.004232,0.012713
33.385122,-0.042712,-0.030847,0.002941
33.395162,-0.004304,-0.016015,0.002049
33.405202,0.007477,0.003154,0.005377
33.415212,-0.035250,-0.028720,-0.000233
33.425252,-0.037360,-0.025550,0.008322
33.435262,-0.014956,-0.012767,-0.000102
33.445302,-0.004278,-0.009633,0.007420
33.455312,-0.011755,-0.013865,0.004175
33.465352,-0.029921,-0.030893,0.004044
33.475393,-0.023491,-0.022406,0.011579
33.485402,-0.002116,0.003190,0.004282
33.495443,0.004226,-0.018209,0.008471
33.505453,-0.034142,-0.019163,0.010497
33.515493,-0.012800,-0.008542,0.008470
33.525503,0.008516,-0.008612,0.008529
33.535543,-0.024534,-0.011703,0.007354
33.545583,-0.017092,-0.020286,0.010539
33.555593,-0.006442,-0.021373,0.007359
33.565633,-0.003199,-0.005370,0.008511
33.585683,-0.020285,-0.020291,0.013735
33.595693,-0.003265,-0.028859,0.007332
33.605733,0.021363,0.009476,0.013991
33.615743,-0.007485,-0.016055,0.012722
33.625783,-0.026678,-0.021353,0.016917
33.635824,0.007483,-0.001173,0.017107
33.655874,0.006380,-0.012902,0.013843
33.665883,0.006445,0.010593,0.013955
33.675924,-0.013933,-0.039564,0.020070
33.685933,-0.012781,-0.009681,0.023420
33.695974,0.022409,0.004148,0.010764
33.706014,-0.023468,-0.016019,0.015883
33.726064,-0.014875,0.006365,0.019217
33.736074,-0.013863,-0.012856,0.018060
33.746114,-0.021384,-0.028800,0.007282
33.756124,-0.004223,0.005273,0.017105
33.766164,-0.015980,-0.008588,0.020211
33.776174,-0.036283,-0.025588,0.015802
33.796255,-0.004253,-0.002173,0.010660
33.806264,-0.019251,-0.035275,0.020076
33.816305,-0.020265,-0.018200,0.023359
33.826314,0.005312,-0.013966,0.013835
33.836355,-0.008557,-0.023573,0.022297
33.846364,-0.037300,-0.006352,0.013754
33.866460,-0.044747,-0.003139,0.016953
33.876470,-0.026687,-0.023479,0.014770
33.886510,-0.016002,-0.016058,0.019108
33.896520,-0.023469,-0.014936,0.012683
33.906560,-0.025587,-0.011740,0.015897
33.916570,-0.030929,-0.018145,0.019057
33.936650,-0.018119,-0.011790,0.021258
33.946660,-0.019236,-0.028858,0.017970
33.956700,0.002091,-0.023577,0.015917
33.966710,-0.007419,-0.001185,0.029884
33.976750,-0.027748,-0.022412,0.015840
33.986760,-0.006455,-0.034259,0.022253
34.006810,-0.026653,-0.013893,0.020157
34.016851,-0.007474,-0.018247,0.024462
34.026891,-0.017044,-0.007511,0.019145
34.036901,-0.001097,-0.022519,0.020186
34.046941,-0.025535,0.002098,0.025576
34.046941,-0.025535,0.002098,0.025576
34.066991,-0.009599,-0.016104,0.024466
34.087041,-0.024522,-0.017129,0.025488
34.107091,-0.007460,-0.013980,0.025550
34.117131,-0.024522,-0.017129,0.025488
34.117131,-0.024522,-0.017129,0.025488
34.127141,-0.011749,-0.020349,0.020167
34.137181,-0.005300,-0.005459,0.028801
34.157231,-0.017084,-0.022467,0.020143
34.157231,-0.017084,-0.022467,0.020143
34.167272,-0.036251,-0.015997,0.020120
34.177281,-0.014905,-0.006465,0.022361
34.187322,-0.025555,-0.006456,0.027672
34.197332,-0.042676,-0.027729,0.021115
34.207372,-0.019208,-0.021408,0.023346
34.237432,-0.017085,-0.023540,0.021206
34.237432,-0.017085,-0.023540,0.021206
34.247472,-0.026641,-0.015006,0.029765
34.257512,-0.025608,-0.023523,0.023319
34.267522,0.014890,-0.023649,0.022362
34.277562,0.004278,-0.008679,0.025608
34.317662,-0.002128,-0.014008,0.027701
34.317662,-0.002128,-0.014008,0.027701
34.327703,-0.043768,-0.039493,0.025329
34.337712,-0.002142,-0.016118,0.022350
34.347753,0.003213,-0.005446,0.020279
34.377812,-0.006323,0.012720,0.024612
34.377812,-0.006323,0.012720,0.024612
34.387853,-0.026657,-0.016034,0.021215
34.397893,-0.042721,-0.044821,0.022102
34.407903,-0.014869,0.008501,0.019227
34.417943,-0.013795,0.008472,0.024571
34.458043,-0.023446,-0.012855,0.024443
34.458043,-0.023446,-0.012855,0.024443
34.468053,-0.011712,-0.008617,0.023428
34.478093,0.004284,-0.006543,0.025618
34.488134,-0.020290,-0.024583,0.017987
34.518193,-0.009555,-0.001163,0.026673
34.518193,-0.009555,-0.001163,0.026673
34.528234,-0.028819,-0.026701,0.020090
34.538243,-0.026638,-0.009631,0.022313
34.548284,-0.023462,-0.017112,0.021218
