time_tick,gyr_X_value,gyr_Y_value,gyr_Z_value
0.022726,-0.016030,-0.018123,0.004143
0.032767,0.000983,-0.032056,0.003056
0.042776,-0.010715,-0.022407,0.003069
0.052817,-0.008573,-0.017059,-0.000104
0.062857,-0.002188,-0.022435,0.003092
0.072867,-0.008592,-0.024540,0.000928
0.082907,-0.009649,-0.023489,0.005203
0.092917,-0.004313,-0.018141,-0.000098
0.102957,-0.000069,-0.025635,0.000947
0.112967,-0.011765,-0.015991,0.002028
0.123007,-0.002207,-0.028837,0.001994
0.133047,-0.003237,-0.014946,0.000989
0.143057,-0.002209,-0.030988,0.005188
0.153097,-0.001119,-0.019219,-0.000094
0.163107,-0.009655,-0.024546,0.003062
0.173147,-0.005390,-0.023487,0.002010
0.183157,-0.006452,-0.020265,-0.001182
0.193198,-0.003250,-0.020290,0.002031
0.203207,-0.008579,-0.021351,0.004148
0.213248,-0.002209,-0.030988,0.005188
0.223288,-0.008576,-0.019205,0.002022
0.223288,-0.008576,-0.019205,0.002022
0.233298,-0.006446,-0.019207,0.000960
0.253387,-0.009647,-0.022416,0.004140
0.253387,-0.009647,-0.022416,0.004140
0.263427,-0.007528,-0.025616,0.001994
0.273437,-0.005384,-0.021351,0.002021
0.283477,0.001007,-0.021362,-0.000098
0.293517,-0.009631,-0.016003,0.003102
0.303527,0.002059,-0.028861,0.004142
0.313567,-0.012842,-0.021337,0.004136
0.323577,-0.007512,-0.019204,0.000957
0.343627,-0.008577,-0.021356,0.005216
0.353667,-0.007529,-0.026689,0.003058
0.353667,-0.007529,-0.026689,0.003058
0.363708,-0.006446,-0.019207,0.000960
0.373717,-0.005380,-0.019210,0.000962
0.383758,-0.007512,-0.019204,0.000957
0.393768,-0.009713,-0.045905,0.002961
0.403808,-0.044797,-0.014831,0.005147
0.413818,0.013800,-0.021414,0.002073
0.423858,-0.000048,-0.018160,0.000982
0.433868,-0.010708,-0.019198,0.002016
0.443908,-0.005402,-0.028837,0.004122
0.453948,-0.009645,-0.020270,0.002014
0.463958,-0.004314,-0.019214,0.000965
0.473998,-0.001124,-0.022433,0.002027
0.484008,-0.007520,-0.023485,0.003073
0.494048,-0.007517,-0.023495,0.005209
0.504058,-0.005383,-0.020278,0.000957
0.514098,-0.004316,-0.020287,0.002029
0.524139,-0.007510,-0.019209,0.002025
0.534148,-0.006466,-0.027761,0.003055
0.544189,-0.004332,-0.026700,0.003066
0.554198,-0.012829,-0.013836,-0.001169
0.564239,-0.002190,-0.022430,0.002024
0.574248,-0.007520,-0.023485,0.003073
0.584289,-0.008592,-0.025618,0.003060
0.594329,-0.005374,-0.017075,0.000973
0.604339,-0.004326,-0.022408,-0.001186
0.614379,-0.011772,-0.018122,0.000950
0.624389,-0.001137,-0.027778,0.003070
0.634429,-0.008582,-0.022419,0.004143
0.644439,-0.007513,-0.020277,0.002020
0.654479,0.001001,-0.023498,-0.000108
0.664489,-0.009645,-0.020270,0.002014
0.674529,-0.005400,-0.027764,0.003058
0.684570,-0.002193,-0.022420,-0.000112
0.694579,-0.007515,-0.020271,0.000952
0.704620,-0.006436,-0.016008,0.002043
0.714629,-0.002207,-0.028837,0.001994
0.724670,-0.008586,-0.024560,0.005201
0.734679,-0.005376,-0.017070,-0.000096
0.744720,0.001003,-0.023503,0.000960
0.754760,-0.011769,-0.018132,0.003086
0.764770,-0.002209,-0.029910,0.003057
0.774810,-0.004320,-0.022428,0.003087
0.784820,-0.010706,-0.018125,0.000953
0.794860,-0.002186,-0.020289,0.000966
0.804870,-0.005389,-0.023492,0.003079
0.814910,-0.009656,-0.024541,0.001994
0.824950,-0.004305,-0.017088,0.003112
0.834960,-0.002194,-0.023493,0.000951
0.845000,-0.013889,-0.013853,0.003101
0.855010,-0.002206,-0.028842,0.003062
0.865050,-0.011770,-0.019205,0.004149
0.875060,-0.009627,-0.013862,0.002044
0.885101,0.004211,-0.020315,0.002052
0.895110,-0.006449,-0.021353,0.003086
0.905151,-0.011769,-0.018132,0.003086
0.915191,-0.006449,-0.020275,0.000954
0.925201,-0.006430,-0.013872,0.002053
0.935241,-0.007515,-0.020271,0.000952
0.945251,-0.007518,-0.021339,0.000946
0.955291,-0.001117,-0.020302,0.003106
0.965301,-0.006439,-0.015998,-0.000093
0.975341,-0.013898,-0.015979,0.000954
0.985381,0.004197,-0.023503,-0.001168
0.995391,-0.005406,-0.028822,0.000917
1.005431,-0.011757,-0.012782,0.000975
1.015441,0.003155,-0.016034,0.001001
1.025481,-0.004325,-0.022413,-0.000118
1.035491,-0.014977,-0.020242,-0.000137
1.045531,0.006334,-0.023525,0.002043
1.055572,-0.012829,-0.015993,0.003094
1.065581,-0.009646,-0.020265,0.000946
1.075622,-0.006452,-0.022421,0.003081
1.085632,0.000994,-0.027785,0.003076
1.095672,-0.006440,-0.018149,0.003101
1.105682,-0.009632,-0.014925,0.000971
1.115722,-0.000063,-0.023499,0.000957
1.125732,-0.007526,-0.025621,0.003063
1.135772,-0.007517,-0.022417,0.003078
1.145812,-0.003237,-0.016024,0.003120
1.155822,-0.001117,-0.020302,0.003106
1.165862,-0.009648,-0.021338,0.002009
1.175872,-0.004330,-0.026705,0.004135
1.185912,-0.005381,-0.020283,0.002026
1.195922,-0.011763,-0.014918,0.000965
1.205962,-0.005388,-0.021341,-0.000116
1.216003,-0.001130,-0.024569,0.002017
1.226012,-0.010715,-0.021329,0.000938
1.236053,-0.005370,-0.016012,0.002046
1.246062,-0.004311,-0.018146,0.000970
1.256133,-0.010712,-0.020261,0.000943
1.266143,-0.001133,-0.025637,0.002012
1.276183,-0.003253,-0.021358,0.002026
1.286223,-0.012817,-0.010643,0.000982
1.296233,-0.001130,-0.023491,-0.000114
1.306273,-0.007537,-0.027742,-0.000152
1.316283,-0.007521,-0.022407,0.000941
1.326323,-0.002178,-0.018158,0.002045
1.336333,-0.006448,-0.018124,-0.002240
1.346373,-0.006455,-0.021333,-0.001187
1.356383,-0.002200,-0.026706,0.003072
1.366423,-0.006453,-0.022416,0.002013
1.376464,-0.012833,-0.017055,0.002020
1.386473,-0.001133,-0.024559,-0.000119
1.396514,-0.006469,-0.027750,0.000919
1.406523,-0.007520,-0.023485,0.003073
1.416564,-0.001120,-0.020292,0.000969
1.426573,-0.009639,-0.018134,0.002024
1.436614,-0.004329,-0.023475,-0.001191
1.446654,-0.005394,-0.025628,0.003068
1.456664,-0.009648,-0.021338,0.002009
1.466704,-0.006428,-0.013877,0.003121
1.476714,-0.004322,-0.021345,-0.000113
1.486754,-0.004320,-0.021350,0.000955
1.496764,-0.002202,-0.026701,0.002004
1.506804,-0.006438,-0.018154,0.004169
1.516844,-0.008567,-0.016001,0.002037
1.526854,-0.003259,-0.023494,0.002016
1.536894,-0.003259,-0.023494,0.002016
1.546904,-0.003257,-0.022421,0.000953
1.556945,-0.005367,-0.014944,0.002051
1.566954,-0.001132,-0.023486,-0.001182
1.576995,-0.007525,-0.023470,-0.000132
1.587004,-0.006462,-0.025620,0.001997
1.597045,-0.002186,-0.019211,-0.001165
1.607085,-0.009637,-0.017061,0.000961
1.617095,-0.007528,-0.023460,-0.002268
1.627135,-0.003271,-0.026688,-0.000135
1.637145,-0.007525,-0.023470,-0.000132
1.647185,-0.007513,-0.020277,0.002020
1.657195,-0.008579,-0.019195,-0.000115
1.667235,-0.006471,-0.027745,-0.000149
1.677275,-0.007529,-0.025611,0.000926
1.687285,-0.005386,-0.020268,-0.001179
1.697325,-0.009634,-0.017071,0.003097
1.707335,-0.003278,-0.027741,-0.003345
1.717375,-0.008579,-0.020273,0.002017
1.727385,-0.002202,-0.025623,-0.000127
1.737425,-0.008578,-0.019200,0.000954
1.747466,-0.006438,-0.017076,0.002038
1.757476,-0.005396,-0.024545,-0.000131
1.767516,-0.004333,-0.026694,0.001998
1.777526,-0.006459,-0.023474,-0.000129
1.787566,-0.009639,-0.017056,-0.000107
1.797576,-0.009643,-0.019197,0.000951
1.807616,-0.001141,-0.026690,-0.001198
1.817626,-0.008577,-0.020278,0.003085
1.827666,-0.003253,-0.021358,0.002026
1.837706,-0.007504,-0.017073,0.002035
1.847716,-0.006455,-0.021333,-0.001187
1.857756,-0.006461,-0.024547,0.000934
1.867766,-0.003269,-0.026693,0.000933
1.877806,-0.006446,-0.019207,0.000960
1.887816,-0.010697,-0.014921,0.000968
1.897856,-0.002206,-0.027764,0.000931
1.907897,-0.007535,-0.026669,-0.001215
1.917906,-0.006450,-0.020270,-0.000114
1.927947,-0.007503,-0.016000,0.000972
1.937956,-0.003268,-0.024542,-0.002262
1.947997,-0.001140,-0.027768,0.000934
1.958007,-0.007530,-0.024533,-0.001205
1.968047,-0.005379,-0.019216,0.002031
1.978087,-0.003250,-0.019212,-0.000100
1.988097,-0.003259,-0.022416,-0.000115
1.998137,-0.001137,-0.026700,0.000939
2.008147,-0.006456,-0.022406,-0.000124
2.018187,-0.004301,-0.013869,-0.000077
2.028197,-0.004320,-0.020272,-0.001176
2.038237,-0.005410,-0.028812,-0.001219
2.048247,-0.007516,-0.020266,-0.000117
2.058287,-0.005388,-0.020263,-0.002247
2.068328,-0.006436,-0.016008,0.002043
2.078337,-0.007531,-0.023450,-0.004405
2.088378,-0.005399,-0.025613,-0.000136
2.098387,-0.006449,-0.019197,-0.001177
2.108428,-0.006440,-0.015993,-0.001162
2.118437,-0.006450,-0.020270,-0.000114
2.128478,-0.004331,-0.023470,-0.002259
2.138518,-0.004324,-0.023491,0.002013
2.148528,-0.004335,-0.026689,0.000930
2.158568,-0.011757,-0.013860,0.003107
2.168578,-0.001138,-0.024544,-0.003324
2.178618,-0.005401,-0.026686,0.000927
2.188628,-0.003256,-0.022426,0.002021
2.198668,-0.002192,-0.022425,0.000956
2.208678,-0.011765,-0.015991,0.002028
2.218718,-0.001144,-0.027758,-0.001203
2.228758,-0.005401,-0.026686,0.000927
2.238768,-0.007519,-0.021334,-0.000122
2.248821,-0.003241,-0.017087,0.002047
2.258830,-0.006450,-0.021348,0.002018
2.268871,-0.003268,-0.025620,-0.000130
2.278880,-0.006459,-0.024552,0.002002
2.288921,-0.005388,-0.021341,-0.000116
2.298961,-0.010696,-0.014926,0.002036
2.308971,-0.001131,-0.022413,-0.002246
2.319011,-0.002199,-0.025633,0.002009
2.329021,-0.008580,-0.020268,0.000949
2.339061,-0.005385,-0.020273,-0.000111
2.349071,-0.003250,-0.019212,-0.000100
2.359111,-0.005402,-0.025603,-0.002272
2.369151,-0.004328,-0.023481,-0.000123
2.379161,-0.001126,-0.022428,0.000959
2.389201,-0.003247,-0.018144,-0.000095
2.399211,-0.006457,-0.021328,-0.002255
2.409251,-0.002210,-0.026676,-0.003337
2.419260,-0.005404,-0.026676,-0.001209
2.429301,-0.004315,-0.018136,-0.001166
2.439311,-0.004310,-0.017073,-0.000093
2.449352,-0.002214,-0.027739,-0.004410
2.459392,-0.007534,-0.026674,-0.000147
2.469402,-0.006455,-0.021333,-0.001187
2.479442,-0.006456,-0.022406,-0.000124
2.489452,-0.007518,-0.020261,-0.001185
2.499492,-0.004343,-0.026664,-0.004411
2.509502,-0.004329,-0.024554,0.000940
2.519542,-0.007515,-0.019193,-0.001180
2.529582,-0.005385,-0.020273,-0.000111
2.539592,-0.009648,-0.018103,-0.004385
2.549632,-0.005400,-0.024535,-0.002267
2.559642,-0.006462,-0.024542,-0.000134
2.569682,-0.007519,-0.021334,-0.000122
2.579692,-0.007503,-0.016000,0.000972
2.589732,-0.003271,-0.026688,-0.000135
2.599773,-0.006463,-0.025615,0.000929
2.609782,-0.003266,-0.024547,-0.001193
2.619823,-0.005377,-0.018143,0.000968
2.629832,-0.007515,-0.019193,-0.001180
2.639873,-0.002217,-0.030963,-0.000153
2.649883,-0.009660,-0.024531,-0.000143
2.659923,-0.009632,-0.014925,0.000971
2.669933,-0.004319,-0.020277,-0.000108
2.679973,-0.006468,-0.025599,-0.002275
2.690013,-0.005392,-0.022404,-0.001189
2.700023,-0.004332,-0.024543,-0.001196
2.710063,-0.010712,-0.020261,0.000943
2.720073,-0.010705,-0.015974,-0.002242
2.730113,-0.004340,-0.026674,-0.002275
2.740123,-0.006470,-0.026672,-0.001212
2.750163,-0.007519,-0.020256,-0.002253
2.760204,-0.002176,-0.016012,-0.000082
2.770213,-0.006453,-0.021338,-0.000119
2.780254,0.000973,-0.032026,-0.003353
2.790263,-0.009661,-0.024526,-0.001211
2.800304,-0.007513,-0.019198,-0.000112
2.810313,-0.003246,-0.017071,-0.001158
2.820354,0.002054,-0.027768,-0.001194
2.830394,-0.009651,-0.020249,-0.002259
2.840404,0.000984,-0.028827,-0.002270
2.850444,-0.014955,-0.012772,0.000966
2.860454,-0.004323,-0.021340,-0.001181
2.870494,-0.003272,-0.026683,-0.001203
2.880503,-0.008588,-0.021321,-0.002261
2.890544,-0.005383,-0.020278,0.000957
2.900554,-0.006452,-0.020265,-0.001182
2.910594,-0.011783,-0.020242,-0.002265
2.920634,-0.007530,-0.024533,-0.001205
2.930644,-0.006458,-0.023479,0.000939
2.940685,-0.003244,-0.018155,0.002042
2.950694,-0.005377,-0.018143,0.000968
2.960735,-0.006462,-0.024542,-0.000134
2.970744,-0.001130,-0.024569,0.002017
2.980785,-0.005380,-0.019210,0.000962
2.990825,-0.004314,-0.019214,0.000965
3.000835,-0.001118,-0.020297,0.002037
3.010875,-0.002198,-0.022404,-0.003317
3.020885,-0.006461,-0.024547,0.000934
3.030925,-0.006433,-0.013862,-0.000083
3.040935,-0.003246,-0.018149,0.000973
3.050975,-0.008593,-0.022384,-0.003334
3.060985,-0.004332,-0.024543,-0.001196
3.071025,-0.007510,-0.018131,-0.000107
3.081065,-0.006454,-0.020260,-0.002250
3.091075,-0.009641,-0.017051,-0.001176
3.101115,-0.002202,-0.023467,-0.004390
3.111125,-0.004336,-0.026684,-0.000138
3.121165,-0.005391,-0.021331,-0.002252
3.131175,-0.004307,-0.016005,-0.000088
3.141216,-0.006458,-0.021323,-0.003323
3.151256,0.000978,-0.030963,-0.002280
3.161266,-0.008588,-0.021321,-0.002261
3.171306,-0.007517,-0.019188,-0.002248
3.181316,-0.004294,-0.010660,-0.001131
3.191356,-0.007542,-0.027727,-0.003357
3.201366,-0.005405,-0.027749,-0.000146
3.211406,-0.007511,-0.017052,-0.002238
3.221446,-0.008582,-0.020263,-0.000120
3.231456,-0.007519,-0.020256,-0.002253
3.241496,-0.006470,-0.025594,-0.003344
3.251533,-0.009646,-0.020265,0.000946
3.261573,-0.005391,-0.021331,-0.002252
3.271583,-0.008573,-0.018137,0.002027
3.281623,-0.010704,-0.015979,-0.001173
3.291633,-0.003278,-0.028819,-0.001214
3.301673,-0.011775,-0.019190,0.000945
3.311714,-0.001122,-0.019209,-0.002230
3.321723,-0.009624,-0.012794,0.002049
3.331764,-0.006461,-0.023469,-0.001197
3.341774,-0.007526,-0.024543,0.000931
3.351814,-0.007524,-0.022397,-0.001195
3.361824,-0.008557,-0.011725,0.000989
3.371864,-0.009632,-0.013847,-0.001160
3.381904,-0.007549,-0.030936,-0.002304
3.391914,-0.012851,-0.022385,-0.000141
3.401954,-0.008574,-0.015981,-0.002236
3.411964,-0.012844,-0.019176,-0.001194
3.422004,-0.010725,-0.021299,-0.005471
3.432014,-0.008599,-0.024519,-0.003344
3.442054,-0.007527,-0.022387,-0.003331
3.452064,-0.012843,-0.018103,-0.002258
3.462104,-0.017103,-0.017021,-0.002264
3.472145,-0.008602,-0.024509,-0.005481
3.482154,-0.011802,-0.026645,-0.003363
3.492195,-0.010725,-0.021299,-0.005471
3.502204,-0.010711,-0.018110,-0.002252
3.512245,-0.014982,-0.018071,-0.007604
3.522255,-0.009679,-0.029856,-0.003373
3.532295,-0.010726,-0.022372,-0.004408
3.542335,-0.010708,-0.015964,-0.004378
3.552345,-0.006454,-0.020260,-0.002250
3.562385,-0.004331,-0.021314,-0.006522
3.572395,-0.008593,-0.022384,-0.003334
3.582435,-0.008606,-0.026650,-0.004423
3.592445,-0.014967,-0.015965,-0.001185
3.602485,-0.006430,-0.011716,-0.002210
3.612525,-0.005404,-0.025598,-0.003341
3.622535,-0.007534,-0.025596,-0.002278
3.632576,-0.009650,-0.018098,-0.005453
3.642585,-0.012822,-0.012784,0.002041
3.652626,-0.010723,-0.021304,-0.004403
3.662635,-0.012866,-0.026647,-0.002298
3.672676,-0.007524,-0.021319,-0.003326
3.682685,-0.007513,-0.019198,-0.000112
3.692726,-0.011761,-0.012772,-0.001161
3.702766,-0.007539,-0.025581,-0.005483
3.712776,-0.005415,-0.032026,0.000902
3.722816,-0.012837,-0.014889,-0.004379
3.732826,-0.007527,-0.023465,-0.001200
3.742866,-0.010687,-0.010645,-0.000080
3.742866,-0.010687,-0.010645,-0.000080
3.752876,-0.002236,-0.035209,-0.005514
3.772956,-0.009641,-0.015973,-0.003307
3.782966,-0.003227,-0.009591,-0.002191
3.782966,-0.003227,-0.009591,-0.002191
3.803016,-0.005449,-0.039461,-0.007679
3.813057,-0.007519,-0.021334,-0.000122
3.823066,-0.006387,0.005381,-0.004265
3.823066,-0.006387,0.005381,-0.004265
3.843147,-0.005445,-0.039471,-0.005543
3.853157,-0.006458,-0.021323,-0.003323
3.863197,-0.008510,0.005362,0.001070
3.863197,-0.008510,0.005362,0.001070
3.873207,-0.006458,-0.021323,-0.003323
3.883247,-0.002259,-0.044831,-0.003423
3.903297,-0.015987,0.002208,-0.004307
3.903297,-0.015987,0.002208,-0.004307
3.923347,-0.002244,-0.037340,-0.006592
3.933387,-0.002184,-0.019216,-0.000097
3.943397,-0.010670,-0.004237,-0.000050
3.953437,-0.005405,-0.026671,-0.002278
3.963447,0.007352,-0.037381,-0.004429
3.963447,0.007352,-0.037381,-0.004429
3.973487,-0.014939,-0.004203,-0.004334
3.983497,0.001019,-0.018168,0.002053
3.993537,-0.008607,-0.027723,-0.003360
4.003578,0.009526,-0.023521,-0.001153
4.013588,-0.020254,-0.002075,0.001002
4.023628,0.000999,-0.021337,-0.005439
4.043678,-0.030931,-0.005214,-0.005451
4.053688,-0.004297,-0.012806,0.000996
4.053688,-0.004297,-0.012806,0.000996
4.063728,0.005218,-0.037369,-0.005503
4.073738,-0.012837,-0.014889,-0.004379
4.083778,-0.003228,-0.010664,-0.001128
4.093818,-0.010733,-0.025580,-0.003355
4.113868,-0.010688,-0.007411,-0.006474
4.123878,-0.013913,-0.020241,-0.001202
4.133918,0.011640,-0.028857,-0.003309
4.143928,-0.011759,-0.010621,-0.004356
4.153968,-0.011768,-0.014903,-0.002239
4.164009,0.011618,-0.036327,-0.004413
4.184059,-0.003240,-0.013857,-0.003279
4.194068,0.002041,-0.032035,-0.002282
4.204109,-0.017079,-0.008478,-0.002224
4.214119,0.004203,-0.021367,-0.001158
4.224159,-0.005406,-0.025593,-0.004409
4.234199,-0.010704,-0.014901,-0.003305
4.244209,-0.001104,-0.014958,0.002063
4.254269,-0.004352,-0.028790,-0.006558
4.264279,-0.006431,-0.013867,0.000985
4.274319,-0.012822,-0.012784,0.002041
4.284329,-0.009666,-0.024511,-0.004416
4.294369,0.002083,-0.017089,-0.001143
4.304379,-0.010701,-0.014911,-0.001168
4.324460,0.005260,-0.023497,-0.003301
4.324460,0.005260,-0.023497,-0.003301
4.334469,-0.010696,-0.013848,-0.000095
4.344510,-0.013903,-0.014886,-0.004382
4.354519,0.009524,-0.022437,-0.004353
4.364560,-0.009636,-0.014910,-0.002234
4.374569,-0.005401,-0.023452,-0.005467
4.404660,-0.002204,-0.023462,-0.005458
4.404660,-0.002204,-0.023462,-0.005458
4.414700,0.008453,-0.024570,-0.004366
4.424710,-0.019199,-0.005277,-0.000078
4.434750,0.002059,-0.023476,-0.005446
4.444760,0.008436,-0.028826,-0.007591
4.474850,0.005238,-0.027738,-0.009731
4.474850,0.005238,-0.027738,-0.009731
4.484890,-0.019229,-0.014879,-0.002260
4.494900,-0.005394,-0.020243,-0.006520
4.504941,0.007370,-0.028823,-0.007593
4.514950,-0.013885,-0.009556,-0.002220
4.535000,-0.003284,-0.028798,-0.005486
4.545041,-0.018160,-0.012736,-0.004383
4.555081,-0.000067,-0.020255,-0.007573
4.565091,-0.001143,-0.024529,-0.006528
4.575131,-0.020281,-0.009530,-0.003306
4.585141,0.002056,-0.024544,-0.005451
4.615231,-0.003259,-0.020260,-0.004378
4.615231,-0.003259,-0.020260,-0.004378
4.625271,-0.007543,-0.027722,-0.004425
4.635281,-0.012841,-0.015952,-0.005452
4.645321,0.002061,-0.024559,-0.002247
4.655331,-0.014988,-0.021285,-0.005483
4.675381,-0.005385,-0.020273,-0.000111
4.685421,-0.006482,-0.027710,-0.007626
4.695431,-0.002201,-0.024550,-0.001190
4.705472,-0.005395,-0.023472,-0.001194
4.715512,-0.011811,-0.027693,-0.007641
4.725522,-0.001138,-0.024544,-0.003324
4.755612,0.006308,-0.029908,-0.003329
4.755612,0.006308,-0.029908,-0.003329
4.765622,-0.024550,-0.011652,-0.003328
4.775662,-0.003291,-0.029856,-0.007628
4.785702,0.004165,-0.034172,-0.003355
4.795712,-0.023479,-0.008442,-0.005446
4.825802,-0.020283,-0.008447,-0.006505
4.825802,-0.020283,-0.008447,-0.006505
4.835812,0.008466,-0.020303,-0.003277
4.845852,-0.008604,-0.023426,-0.008680
4.855862,-0.012846,-0.018093,-0.004394
4.865902,0.004205,-0.018143,-0.005415
4.885952,-0.008562,-0.011709,-0.002215
4.895993,0.004194,-0.023493,-0.003304
4.906003,-0.014989,-0.023436,-0.002289
4.916043,0.004194,-0.023493,-0.003304
4.926053,-0.008584,-0.019180,-0.003319
4.936093,-0.008591,-0.021311,-0.004397
4.966183,-0.005398,-0.023462,-0.003331
4.966183,-0.005398,-0.023462,-0.003331
4.976193,0.017997,-0.042761,-0.003357
4.986233,-0.028782,-0.002042,-0.000089
4.996243,0.008451,-0.024565,-0.005434
5.006283,0.002015,-0.040573,-0.003391
5.036374,-0.009706,-0.038389,-0.005549
5.036374,-0.009706,-0.038389,-0.005549
5.046383,-0.018184,-0.020201,-0.006555
5.056424,-0.000052,-0.015994,-0.005417
5.066433,-0.011811,-0.027693,-0.007641
5.076474,-0.017115,-0.018059,-0.008678
5.086483,-0.003248,-0.014910,-0.006489
5.096524,-0.013927,-0.021273,-0.008685
5.106564,-0.001157,-0.029868,-0.006554
5.116574,-0.006438,-0.012769,-0.005419
5.126614,-0.017104,-0.013787,-0.008658
5.136624,0.008436,-0.029904,-0.005459
5.146664,-0.009632,-0.011691,-0.005423
5.166714,0.008437,-0.030982,-0.003328
5.176754,-0.009643,-0.012733,-0.010769
5.186764,-0.008590,-0.021316,-0.003329
5.196805,-0.001149,-0.029893,-0.001213
5.206814,-0.010716,-0.015939,-0.009719
5.216855,-0.002199,-0.023477,-0.002254
5.236905,-0.018184,-0.019123,-0.008686
5.246914,-0.006465,-0.025609,-0.000139
5.256985,-0.016066,-0.022319,-0.011900
5.267025,-0.009646,-0.021343,0.003077
5.277035,-0.009672,-0.025569,-0.006557
5.287075,-0.021383,-0.019108,-0.009763
5.307125,-0.000094,-0.027710,-0.011882
5.317135,-0.030951,-0.014846,-0.001224
5.327175,-0.002196,-0.019180,-0.007574
5.337215,0.000986,-0.026681,-0.004396
5.347225,-0.024567,-0.015909,-0.006552
5.357265,-0.008602,-0.022353,-0.009743
5.377315,-0.010701,-0.013833,-0.003300
5.387325,-0.016062,-0.021256,-0.010827
5.397366,-0.003268,-0.024542,-0.002262
5.407375,-0.004320,-0.017043,-0.006502
5.417416,-0.006469,-0.023443,-0.006538
5.427456,-0.010711,-0.017032,-0.004383
5.447506,0.003131,-0.021344,-0.005433
5.457516,-0.012848,-0.020239,-0.002268
5.467556,-0.013933,-0.022331,-0.010826
5.477566,-0.009635,-0.013837,-0.003297
5.487606,0.005270,-0.021376,-0.000087
5.497646,-0.016048,-0.016989,-0.009739
5.527706,0.000993,-0.021316,-0.009712
5.527706,0.000993,-0.021316,-0.009712
5.537746,-0.016007,-0.009580,0.004183
5.547756,0.005232,-0.028796,-0.011872
5.557796,-0.017103,-0.018099,-0.000133
5.567837,-0.006436,-0.014930,-0.000088
5.597897,-0.004335,-0.021304,-0.008658
5.597897,-0.004335,-0.021304,-0.008658
5.607937,0.000999,-0.022415,-0.003308
5.617947,-0.007512,-0.018125,-0.001175
5.627987,0.000997,-0.020254,-0.008639
5.637997,-0.009645,-0.020270,0.002014
5.658077,-0.003258,-0.019187,-0.005441
5.668087,0.003145,-0.019233,-0.000082
5.678127,-0.002234,-0.031985,-0.009771
5.688137,-0.019239,-0.019155,-0.001212
5.698177,-0.000062,-0.019192,-0.006500
5.708187,-0.006457,-0.020250,-0.004386
5.728268,0.003123,-0.022396,-0.008643
5.728268,0.003123,-0.022396,-0.008643
5.738277,-0.014950,-0.010631,-0.000092
5.748318,-0.008597,-0.023446,-0.004408
5.758327,-0.000064,-0.019187,-0.007568
5.768368,-0.006451,-0.019192,-0.002245
5.778377,-0.005402,-0.022374,-0.007598
5.788418,-0.012838,-0.018118,0.000947
5.798428,-0.008585,-0.019175,-0.004387
5.808468,0.009508,-0.028850,-0.003315
5.818508,-0.005368,-0.014939,0.000983
5.828518,0.000992,-0.023468,-0.006518
5.838558,-0.008595,-0.025608,0.000923
5.848568,0.005239,-0.030972,-0.003337
5.858608,-0.006442,-0.015988,-0.002230
5.868618,0.004182,-0.027765,-0.003324
5.878658,0.008434,-0.032050,-0.003333
5.888699,-0.016025,-0.014909,0.002022
5.898708,-0.009663,-0.024521,-0.002279
5.908749,0.000954,-0.037351,-0.006583
5.918758,-0.022422,-0.011649,-0.005458
5.928799,-0.004337,-0.022372,-0.008664
5.938808,-0.012838,-0.018118,0.000947
5.948849,-0.007548,-0.027706,-0.007629
5.958858,-0.022390,-0.004209,0.002055
5.968899,-0.001142,-0.022377,-0.009723
5.978939,-0.002194,-0.019185,-0.006506
5.988949,-0.017092,-0.013823,-0.001181
6.008999,-0.001118,-0.020297,0.002037
6.008999,-0.001118,-0.020297,0.002037
6.019039,-0.004323,-0.018111,-0.006507
6.029049,0.000995,-0.023478,-0.004381
6.039089,0.006348,-0.016030,-0.002195
6.049129,-0.004335,-0.021304,-0.008658
6.059139,-0.000076,-0.026688,-0.002263
6.089230,-0.018156,-0.011673,-0.003310
6.089230,-0.018156,-0.011673,-0.003310
6.099239,0.007356,-0.034162,-0.007619
6.109280,-0.013936,-0.024477,-0.008700
6.119320,-0.008605,-0.024499,-0.007617
6.129330,-0.009660,-0.021297,-0.006537
6.139370,-0.017131,-0.024472,-0.007641
6.149380,-0.014985,-0.020217,-0.005478
6.159420,-0.006474,-0.022350,-0.011874
6.169430,-0.004344,-0.027737,-0.003348
6.179470,-0.016019,-0.010617,-0.002231
6.189480,0.010560,-0.032042,-0.006532
6.199520,-0.010697,-0.017078,0.005231
6.219570,-0.001104,-0.014958,0.002063
6.229610,0.002077,-0.018147,-0.003285
6.239620,0.002054,-0.026690,-0.003325
6.249660,-0.006431,-0.014945,0.003116
6.259710,-0.003225,-0.009596,-0.001123
6.269751,-0.002194,-0.023493,0.000951
6.289801,-0.011777,-0.017029,-0.004386
6.299841,-0.010699,-0.014916,-0.000100
6.309851,0.000989,-0.024535,-0.006523
6.319891,-0.014968,-0.018116,0.002009
6.329901,-0.013932,-0.024487,-0.006564
6.339941,-0.005403,-0.024525,-0.004404
6.359991,-0.009659,-0.021302,-0.005469
6.370031,-0.011769,-0.017054,0.000955
6.380041,0.005234,-0.028801,-0.010804
6.390081,-0.012823,-0.012779,0.000972
6.400091,-0.002205,-0.021306,-0.009721
6.410131,-0.004322,-0.019189,-0.004376
6.420141,-0.000050,-0.012770,-0.009674
6.430181,-0.001139,-0.022388,-0.007587
6.440222,-0.008564,-0.013855,-0.000089
6.450231,-0.009647,-0.015952,-0.007580
6.460272,-0.007521,-0.020251,-0.003321
6.470282,-0.008582,-0.013800,-0.011839
6.480322,-0.017102,-0.014870,-0.005459
6.500372,0.006292,-0.030935,-0.011879
6.510382,-0.024534,-0.008474,0.002029
6.520422,-0.000064,-0.017031,-0.011831
6.530462,0.004193,-0.025644,-0.000110
6.540472,-0.010712,-0.014876,-0.008646
6.550512,0.003131,-0.021344,-0.005433
6.570562,0.012694,-0.027747,-0.012915
6.580572,-0.009615,-0.012824,0.008458
6.590612,0.005254,-0.025632,-0.003311
6.600653,-0.000048,-0.017082,-0.001149
6.610662,-0.001145,-0.028831,-0.000140
6.620703,-0.008593,-0.019149,-0.009728
6.640753,-0.009666,-0.024511,-0.004416
6.640753,-0.009666,-0.024511,-0.004416
6.650762,-0.013940,-0.027696,-0.005511
6.660803,-0.022445,-0.022349,-0.001236
6.670813,-0.013924,-0.020205,-0.008680
6.680853,-0.008650,-0.042669,-0.004499
6.690893,-0.028824,-0.012681,-0.008685
6.700903,-0.011812,-0.025537,-0.011904
6.710943,-0.006481,-0.032022,0.000899
6.720953,-0.024588,-0.020150,-0.012982
6.730993,-0.016084,-0.034112,-0.002342
6.741003,-0.013909,-0.013787,-0.010786
6.751043,0.004139,-0.041633,-0.006595
6.761084,-0.017135,-0.023383,-0.011908
6.781134,-0.002191,-0.023503,0.003087
6.791143,-0.003287,-0.023403,-0.017211
6.801184,-0.001137,-0.027778,0.003070
6.811193,-0.004324,-0.017027,-0.009706
6.821234,-0.006468,-0.021292,-0.009733
6.831274,-0.007484,-0.009597,0.002070
6.851324,-0.020285,-0.014905,0.004146
6.851324,-0.020285,-0.014905,0.004146
6.861334,-0.020300,-0.011626,-0.011861
6.871374,-0.001133,-0.024559,-0.000119
6.881384,-0.017093,-0.011667,-0.005444
6.891424,-0.016062,-0.024485,-0.005501
6.901434,-0.020281,-0.010608,-0.001174
6.921514,-0.009650,-0.023483,0.004135
6.921514,-0.009650,-0.023483,0.004135
6.931524,-0.007514,-0.017042,-0.004374
6.941564,0.008474,-0.021406,0.004195
6.951574,-0.001102,-0.014963,0.003131
6.961615,0.004178,-0.028828,-0.004398
6.971624,0.013800,-0.022492,0.004205
6.991705,0.012697,-0.034220,0.000941
7.001715,-0.008557,-0.012803,0.003120
7.011755,0.009505,-0.028840,-0.005451
7.021765,-0.012851,-0.023463,0.001990
7.031805,-0.010754,-0.030900,-0.007653
7.041815,-0.010713,-0.017027,-0.005451
7.061865,-0.010749,-0.027686,-0.009775
7.061865,-0.010749,-0.027686,-0.009775
7.071905,-0.021365,-0.012700,-0.009733
7.081945,0.002030,-0.033077,-0.007628
7.091955,-0.016055,-0.021276,-0.006554
7.101995,-0.003300,-0.029826,-0.014037
7.112005,-0.000062,-0.019192,-0.006500
7.132055,-0.005424,-0.028766,-0.010833
7.142095,0.025471,-0.034211,-0.009705
7.152136,-0.010740,-0.028789,-0.002302
7.162146,0.008463,-0.020293,-0.005414
7.172186,0.025485,-0.032101,-0.004354
7.182196,0.009470,-0.040577,-0.007643
7.212286,-0.005385,-0.020273,-0.000111
7.222296,0.000965,-0.033079,-0.006563
7.232336,-0.003257,-0.022421,0.000953
7.242376,0.002051,-0.028836,-0.001199
7.252386,-0.006466,-0.023453,-0.004402
7.262450,-0.012847,-0.020244,-0.001199
7.272460,0.007389,-0.025649,-0.001169
7.282500,-0.002181,-0.014919,-0.005418
7.292510,-0.004342,-0.028820,-0.000148
7.302550,0.000999,-0.020259,-0.007571
7.312591,-0.004325,-0.020257,-0.004381
7.322600,-0.016032,-0.015962,-0.001188
7.332641,-0.003281,-0.023423,-0.012938
7.342650,-0.005381,-0.020283,0.002026
7.352691,-0.004329,-0.019168,-0.008648
7.362701,-0.013931,-0.023414,-0.007627
7.372741,0.006335,-0.021374,-0.001152
7.382751,0.007392,-0.019196,-0.010753
7.392791,-0.000063,-0.021343,-0.003306
7.402831,0.012698,-0.029913,-0.006516
7.412841,0.008464,-0.020298,-0.004345
7.422881,0.016983,-0.022457,-0.005400
7.432891,0.002080,-0.017079,-0.003280
7.442931,0.016948,-0.034194,-0.007592
7.452941,0.005269,-0.020293,-0.003286
7.462981,-0.011767,-0.012752,-0.005434
7.483031,-0.002191,-0.019196,-0.004370
7.483031,-0.002191,-0.019196,-0.004370
7.503081,-0.006438,-0.013847,-0.003288
7.513122,-0.001140,-0.021304,-0.010786
7.513122,-0.001140,-0.021304,-0.010786
7.533172,0.006343,-0.016014,-0.005399
7.553222,-0.003240,-0.013857,-0.003279
7.553222,-0.003240,-0.013857,-0.003279
7.573272,0.008463,-0.020293,-0.005414
7.573272,0.008463,-0.020293,-0.005414
7.593322,0.000999,-0.021337,-0.005439
7.593322,0.000999,-0.021337,-0.005439
7.603362,0.008482,-0.014969,-0.002184
7.633452,-0.001121,-0.015980,-0.007556
7.633452,-0.001121,-0.015980,-0.007556
7.643462,0.006310,-0.030991,-0.000129
7.653503,-0.000067,-0.021333,-0.005442
7.663512,-0.005414,-0.024489,-0.011881
7.673553,-0.002188,-0.019206,-0.002233
7.703643,-0.004332,-0.020236,-0.008653
7.703643,-0.004332,-0.020236,-0.008653
7.713653,-0.005429,-0.029829,-0.011906
7.723693,-0.023516,-0.020174,-0.008706
7.733703,-0.013913,-0.017006,-0.007596
7.743743,0.008431,-0.028811,-0.010795
7.773803,0.005261,-0.021346,-0.006496
7.773803,0.005261,-0.021346,-0.006496
7.783843,-0.007528,-0.022382,-0.004400
7.803893,0.008457,-0.024585,-0.001161
7.803893,0.008457,-0.024585,-0.001161
7.813933,-0.009672,-0.025569,-0.006557
7.843993,-0.016071,-0.026611,-0.007648
7.843993,-0.016071,-0.026611,-0.007648
7.854034,-0.014989,-0.023436,-0.002289
7.864074,0.006308,-0.029908,-0.003329
7.874084,-0.020291,-0.013807,-0.002258
7.884124,-0.004338,-0.026679,-0.001206
7.904174,-0.018172,-0.018086,-0.002272
7.914184,-0.010718,-0.022397,0.000933
7.924224,0.002068,-0.022428,-0.001169
7.934234,-0.017100,-0.015953,-0.002259
7.944274,-0.011772,-0.019200,0.003081
7.954314,0.006321,-0.023485,-0.006503
7.984374,0.016949,-0.039584,0.003064
7.984374,0.016949,-0.039584,0.003064
7.994414,-0.006428,-0.014956,0.005253
8.004424,0.005246,-0.026685,-0.006521
8.014464,0.005269,-0.027834,0.010565
8.024505,-0.001130,-0.023491,-0.000114
8.054565,0.011636,-0.030998,-0.002251
8.054565,0.011636,-0.030998,-0.002251
8.064605,-0.008580,-0.023502,0.007343
8.074615,-0.006476,-0.032037,0.004103
8.084655,-0.005418,-0.034172,0.003028
8.094665,-0.002203,-0.028852,0.005198
8.114745,0.002049,-0.034216,0.007321
8.124755,-0.007524,-0.027782,0.008393
8.134795,0.006307,-0.034215,0.004128
8.144805,-0.008590,-0.027779,0.008391
8.154845,0.003107,-0.036350,0.006246
8.164855,-0.004332,-0.029929,0.008392
8.194945,0.000965,-0.043849,0.012614
8.194945,0.000965,-0.043849,0.012614
8.204986,-0.005371,-0.019241,0.007372
8.214995,0.008482,-0.021432,0.009536
8.225036,0.006322,-0.033182,0.011611
8.235046,-0.009651,-0.026713,0.009461
8.265138,-0.002176,-0.022475,0.011638
8.275178,-0.007488,-0.017123,0.012717
8.285188,0.006332,-0.029983,0.012694
8.295228,-0.002188,-0.029976,0.016944
8.305238,-0.010688,-0.013874,0.005246
8.335328,-0.010697,-0.017078,0.005231
8.345369,-0.011762,-0.025693,0.021210
8.355378,-0.017120,-0.026663,0.004099
8.365419,-0.004306,-0.025702,0.018026
8.375428,-0.013887,-0.020322,0.015889
8.395478,-0.007507,-0.031067,0.025469
8.395478,-0.007507,-0.031067,0.025469
8.405519,0.001000,-0.031034,0.012675
8.415528,-0.002151,-0.020400,0.024466
8.425569,0.012723,-0.034301,0.018033
8.435609,-0.005345,-0.017166,0.020200
8.445619,0.016987,-0.038627,0.026570
8.475709,0.009542,-0.028956,0.019117
8.475709,0.009542,-0.028956,0.019117
8.485719,-0.018138,-0.019270,0.022291
8.495759,-0.014965,-0.027819,0.021191
8.505799,-0.005388,-0.027804,0.011604
8.515809,-0.013881,-0.025727,0.029750
8.545900,-0.016021,-0.023539,0.020140
8.545900,-0.016021,-0.023539,0.020140
8.555909,-0.017069,-0.012820,0.012711
8.565950,-0.023469,-0.021399,0.024403
8.575959,-0.008568,-0.024616,0.016951
8.586000,-0.021300,-0.006445,0.022343
8.606050,-0.005360,-0.022505,0.020175
8.606050,-0.005360,-0.022505,0.020175
8.616090,-0.004284,-0.020388,0.023392
8.626100,-0.007446,-0.008641,0.025576
8.636140,0.021244,-0.038621,0.022309
8.646150,-0.010665,-0.017179,0.026595
8.656190,-0.001092,-0.021456,0.021260
8.686280,-0.013867,-0.018231,0.025513
8.686280,-0.013867,-0.018231,0.025513
8.696290,-0.011751,-0.024651,0.026556
8.706330,-0.001125,-0.037511,0.028661
8.716340,-0.012835,-0.029977,0.024392
8.726381,-0.025574,-0.015015,0.030836
8.746431,-0.005381,-0.034288,0.027596
8.746431,-0.005381,-0.034288,0.027596
8.756471,-0.021331,-0.022504,0.030813
8.766481,-0.009624,-0.027877,0.029752
8.776521,-0.007475,-0.020398,0.027656
8.786531,-0.012799,-0.021474,0.032978
8.796571,-0.014952,-0.024630,0.024411
8.816621,-0.013865,-0.017158,0.024449
8.826661,-0.006397,-0.018286,0.031942
8.836671,-0.010657,-0.018282,0.034067
8.846711,-0.012815,-0.021423,0.022296
8.856721,-0.015958,-0.011888,0.040492
8.866761,-0.001072,-0.015059,0.023426
8.896852,-0.013859,-0.016100,0.026591
8.896852,-0.013859,-0.016100,0.026591
8.906861,-0.017033,-0.010781,0.033017
8.916902,-0.012764,-0.006503,0.028776
8.926912,-0.006397,-0.015052,0.025548
8.936952,-0.021292,-0.011855,0.037273
8.957002,-0.017032,-0.011859,0.035148
8.967012,-0.008514,-0.012939,0.031962
8.977052,-0.015962,-0.005414,0.026636
8.987092,-0.013824,-0.009749,0.038371
8.997102,-0.005334,-0.013972,0.022352
9.007142,-0.004263,-0.020454,0.037279
9.037202,-0.021271,-0.006536,0.041571
9.037202,-0.021271,-0.006536,0.041571
9.047242,-0.007466,-0.015038,0.023409
9.057283,-0.013842,-0.016156,0.038341
9.067292,0.000005,-0.015098,0.030907
9.077333,-0.009542,-0.001204,0.035219
9.097383,0.011694,-0.029029,0.033010
9.107392,-0.006331,0.001974,0.038448
9.117433,-0.010633,-0.008661,0.031976
9.127443,-0.001116,-0.036463,0.032939
9.137483,-0.007447,-0.010792,0.028770
9.147523,-0.017013,-0.005456,0.036246
9.167573,-0.020227,-0.008624,0.030881
9.177583,-0.013857,-0.017184,0.029790
9.187623,-0.008541,-0.019316,0.025522
9.197633,-0.018116,-0.018263,0.035115
9.207673,-0.005328,-0.009680,0.018099
9.217714,0.005308,-0.026882,0.035139
9.237764,0.004272,-0.009737,0.023466
9.247773,0.001060,-0.022607,0.037283
9.257854,-0.012782,-0.010754,0.024483
9.267863,0.002133,-0.017246,0.031971
9.277904,0.005327,-0.017246,0.029843
9.287913,-0.010637,-0.008650,0.029840
9.307994,-0.009599,-0.016104,0.024466
9.318004,-0.018132,-0.022519,0.031890
9.328044,-0.007457,-0.015068,0.029818
9.338054,-0.021315,-0.017169,0.031906
9.348094,-0.019184,-0.015020,0.027649
9.358104,-0.013881,-0.024649,0.027619
9.408244,-0.000029,-0.025762,0.027652
9.408244,-0.000029,-0.025762,0.027652
9.418285,-0.020228,-0.011853,0.036207
9.428294,-0.014900,-0.007559,0.027697
9.438335,0.010644,-0.022613,0.031969
9.448344,-0.027710,-0.016071,0.029757
9.458385,-0.015978,-0.011827,0.027673
9.468425,0.000033,-0.005491,0.032021
9.478435,-0.012810,-0.022516,0.027632
9.488475,-0.021302,-0.010747,0.028732
9.498485,0.003208,-0.011894,0.028794
9.518535,-0.009595,-0.016119,0.027671
9.518535,-0.009595,-0.016119,0.027671
9.528575,-0.004233,-0.005467,0.029872
9.538615,-0.019188,-0.012854,0.021250
9.548625,-0.017034,-0.011854,0.034080
9.558665,-0.010642,-0.006479,0.022372
9.568675,-0.007456,-0.013995,0.028755
9.588725,-0.007487,-0.020357,0.019111
9.588725,-0.007487,-0.020357,0.019111
9.598765,-0.021256,0.002033,0.036270
9.608775,-0.004285,-0.022539,0.026587
9.618816,-0.008547,-0.021452,0.025512
9.628856,-0.017038,-0.009688,0.027681
9.638866,0.011704,-0.022596,0.027699
9.668956,0.006368,-0.022559,0.023412
9.668956,0.006368,-0.022559,0.023412
9.678966,-0.009640,-0.032133,0.026527
9.689006,-0.017021,-0.005431,0.030905
9.699046,0.005329,-0.012944,0.023454
9.709056,-0.007464,-0.020433,0.035134
9.729106,-0.008535,-0.021488,0.032989
9.739146,-0.012763,-0.005430,0.027713
9.749156,0.001058,-0.019368,0.029821
9.759196,-0.008486,-0.002255,0.030944
9.769206,-0.001071,-0.017215,0.027689
9.779246,-0.022353,-0.006482,0.030886
9.799296,-0.004271,-0.018272,0.027675
9.809337,-0.024494,-0.007522,0.026602
9.819347,-0.027696,-0.009653,0.027651
9.829387,-0.014920,-0.010727,0.020204
9.839397,-0.003198,-0.016145,0.028757
9.849437,-0.030914,-0.014962,0.023344
9.879527,-0.010710,-0.029963,0.020125
9.879527,-0.010710,-0.029963,0.020125
9.889537,-0.025556,-0.004300,0.023410
9.899577,0.006332,-0.035369,0.022283
9.909587,-0.015976,-0.010754,0.026610
9.919627,-0.009627,-0.022481,0.018027
9.939677,-0.008550,-0.019286,0.019113
9.949718,-0.001059,-0.014021,0.029841
9.959727,-0.013866,-0.016080,0.022318
9.969768,-0.006448,-0.032128,0.023331
9.979777,-0.010631,-0.005437,0.027718
9.989818,-0.010675,-0.020377,0.025511
10.009868,-0.001103,-0.030040,0.029765
10.019908,-0.022357,-0.004315,0.024487
10.029918,-0.013884,-0.024639,0.025482
10.039958,-0.003224,-0.021449,0.021254
10.049968,-0.010656,-0.012897,0.024478
10.060008,-0.018115,-0.013956,0.027657
10.090068,-0.025578,-0.010692,0.020175
10.100108,-0.012833,-0.029982,0.025460
10.110149,-0.019205,-0.018184,0.019089
10.120158,-0.013875,-0.018206,0.020172
10.130199,-0.019199,-0.017126,0.021230
10.150249,-0.030924,-0.014932,0.016935
10.160258,-0.012829,-0.021378,0.012682
10.170299,-0.028774,-0.010687,0.021234
10.180339,-0.023494,-0.024552,0.013706
10.190349,-0.030922,-0.014937,0.018004
10.200389,-0.012805,-0.013912,0.014854
10.220439,-0.016038,-0.025639,0.012653
10.230449,-0.022407,-0.021392,0.022269
10.240489,-0.017052,-0.007486,0.013804
10.250499,-0.015981,-0.010739,0.023406
10.260570,-0.016010,-0.017111,0.015898
10.270610,-0.008568,-0.024616,0.016951
10.300670,-0.015988,-0.008562,0.014870
10.310711,-0.005348,-0.020390,0.024458
10.320720,-0.006410,-0.015011,0.017003
10.330761,-0.017057,-0.013934,0.022319
10.340801,-0.010652,-0.009678,0.021289
10.360851,-0.007470,-0.019335,0.028730
10.370861,-0.014937,-0.011749,0.010585
10.380901,-0.006402,-0.015036,0.022344
10.390911,-0.026584,0.012821,0.017079
10.400951,0.005271,-0.029995,0.015896
10.410961,-0.037286,-0.004242,0.019105
10.431041,-0.015951,0.003170,0.018131
10.441051,-0.006447,-0.026743,0.013742
10.451091,-0.021306,-0.003195,0.012745
10.461101,0.008452,-0.034262,0.012680
10.471141,-0.022389,-0.010677,0.014843
10.481151,-0.004296,-0.017119,0.009521
10.511242,-0.002165,-0.020355,0.014853
10.521282,-0.006432,-0.019253,0.010573
10.531292,0.021266,-0.025765,0.013824
10.541332,0.003168,-0.016075,0.009547
10.551342,-0.013880,-0.018191,0.016967
10.561382,-0.010673,-0.011768,0.011665
10.571392,0.010589,-0.029977,0.008433
10.581432,-0.036215,0.001125,0.012724
10.591472,-0.001110,-0.020323,0.007378
10.601482,-0.019173,-0.002129,0.011687
10.611522,-0.019224,-0.020279,0.010533
10.621532,-0.024526,-0.007421,0.005238
10.641582,-0.017042,0.000020,0.007430
10.651622,-0.016030,-0.020279,0.008405
10.661663,-0.019178,-0.004265,0.011677
10.671672,0.005280,-0.021406,0.006323
10.681713,-0.019177,-0.003192,0.010614
10.691723,-0.004290,-0.014983,0.009531
10.721813,-0.007476,-0.008544,0.005280
10.721813,-0.007476,-0.008544,0.005280
10.731823,-0.018137,-0.010656,0.007377
10.741863,-0.012828,-0.018149,0.007356
10.751903,-0.029838,0.000082,0.003123
10.761913,-0.009628,-0.016013,0.005239
10.781963,-0.018165,-0.017028,-0.000131
10.792003,-0.021331,-0.009578,0.007373
10.802013,-0.002165,-0.013891,0.003133
10.812053,-0.015988,-0.003177,0.005282
10.822094,0.002062,-0.027793,0.004147
10.832103,-0.023457,-0.005279,0.003115
10.852153,-0.022371,0.001115,0.005285
10.862194,-0.016050,-0.023448,0.000913
10.872203,-0.029867,-0.010598,0.003072
10.882244,-0.017119,-0.022356,-0.003358
10.892254,-0.009609,-0.010689,0.008469
10.902294,-0.032017,-0.012686,-0.005490
10.932384,-0.010719,-0.019163,-0.005461
10.942394,-0.028803,-0.010596,0.002007
10.952434,-0.000074,-0.023464,-0.006520
10.962444,-0.021359,-0.018106,0.004128
10.972484,-0.007521,-0.020251,-0.003321
10.992534,-0.022400,-0.008486,0.003103
11.002575,0.002029,-0.030921,-0.011891
11.012584,-0.000087,-0.036350,0.008374
11.022625,-0.025586,0.001181,-0.006474
11.032634,0.005274,-0.023542,0.006312
11.042675,-0.008594,-0.023457,-0.002271
11.062725,-0.009592,-0.005354,0.009562
11.072765,0.003140,-0.021374,0.000976
11.082775,0.004228,-0.013907,0.002082
11.092815,0.005259,-0.032111,0.011613
11.102825,-0.011749,-0.008500,-0.001141
11.112865,0.012739,-0.023581,0.009538
11.142955,-0.002139,-0.007509,0.008504
11.152965,0.016984,-0.025691,0.000994
11.163005,-0.010653,-0.002137,0.007438
11.173015,0.003121,-0.025620,-0.004385
11.183056,-0.010722,-0.024538,0.001991
11.203106,-0.006409,-0.005319,-0.000043
11.213115,-0.003299,-0.035216,-0.003380
11.223156,-0.032011,-0.009472,-0.007611
11.233196,0.006315,-0.026699,-0.004382
11.243206,-0.005397,-0.023467,-0.002262
11.253246,-0.013879,-0.002035,-0.011798
11.273305,-0.004324,-0.017027,-0.009706
11.273305,-0.004324,-0.017027,-0.009706
11.283315,0.003146,-0.019238,0.000986
11.303395,0.015894,-0.030997,-0.005444
11.313405,-0.020256,-0.000992,-0.002197
11.323445,0.007395,-0.020284,-0.006485
11.343495,0.000980,-0.025583,-0.010800
11.353505,-0.019217,-0.010607,-0.002240
11.353505,-0.019217,-0.010607,-0.002240
11.363545,-0.018156,-0.009517,-0.007573
11.373555,-0.005379,-0.011674,-0.011820
11.383596,-0.030921,-0.006322,0.003089
11.393636,-0.004299,-0.009567,-0.006466
11.423696,-0.016013,-0.009559,-0.000089
11.423696,-0.016013,-0.009559,-0.000089
11.433736,-0.004314,-0.020292,0.003097
11.443746,0.002075,-0.018141,-0.004353
11.453786,0.004203,-0.026753,0.008431
11.463826,-0.010686,-0.008494,-0.003274
11.493886,0.010532,-0.039492,-0.011908
11.493886,0.010532,-0.039492,-0.011908
11.503926,-0.023478,-0.017061,0.010537
11.513936,-0.005414,-0.029875,-0.002293
11.523976,-0.009642,-0.017046,-0.002244
11.533986,-0.010704,-0.020286,0.006284
11.554067,-0.004362,-0.039530,0.006210
11.564076,-0.021337,-0.006328,-0.002225
11.574117,0.008462,-0.022444,-0.002219
11.584127,-0.010690,-0.013869,0.004178
11.594167,-0.000088,-0.029882,-0.004414
11.604177,-0.011742,-0.008521,0.003132
11.634267,-0.000038,-0.013883,-0.000066
11.634267,-0.000038,-0.013883,-0.000066
11.644307,-0.004278,-0.006404,0.002094
11.654317,-0.011774,-0.017039,-0.002250
11.664357,-0.010679,-0.006363,-0.002196
11.674367,0.001025,-0.016032,0.002063
11.694417,-0.019170,0.001095,0.007430
11.704457,0.004222,-0.014965,-0.000059
11.714498,0.001019,-0.016012,-0.002209
11.724507,-0.007474,-0.010706,0.010611
11.734548,0.007408,-0.014940,-0.007528
11.744557,-0.000014,-0.012881,0.013826
11.774648,-0.012799,-0.005313,0.003144
11.774648,-0.012799,-0.005313,0.003144
11.784688,0.022341,-0.015024,-0.000009
11.794698,-0.008513,-0.001091,0.010653
11.804738,0.023367,-0.028905,-0.001140
11.814748,-0.018074,0.013922,0.004289
11.844838,-0.006432,-0.018174,0.008442
11.844838,-0.006432,-0.018174,0.008442
11.854848,0.001061,0.000012,-0.003202
11.864888,-0.009598,-0.003183,0.002095
11.874929,-0.018115,0.000049,0.002087
11.884938,0.002094,-0.013890,-0.000060
11.915029,0.001055,-0.006431,0.004245
11.915029,0.001055,-0.006431,0.004245
11.925038,-0.018129,-0.002062,-0.003265
11.935079,-0.018157,-0.013824,-0.000116
11.945119,-0.002207,-0.025608,-0.003332
11.955129,-0.016005,-0.006356,-0.000074
11.985219,-0.013913,-0.019163,-0.003334
11.995229,-0.013913,-0.020241,-0.001202
12.005269,-0.010664,-0.002101,-0.000039
12.015279,0.004206,-0.021377,0.000979
12.025319,-0.011779,-0.020253,-0.000128
12.055409,0.013797,-0.023560,0.004200
12.055409,0.013797,-0.023560,0.004200
12.065419,-0.014963,-0.017054,0.003083
12.075460,-0.014991,-0.028816,0.006232
12.085469,-0.003226,-0.011747,0.002072
12.095510,0.016981,-0.027837,0.003120
12.125600,-0.018127,-0.004223,0.002066
12.125600,-0.018127,-0.004223,0.002066
12.135610,0.004172,-0.033120,-0.000145
12.145650,-0.027695,0.001117,0.008474
12.155660,0.028687,-0.032126,-0.001141
12.165700,-0.028763,-0.001025,0.010598
12.195790,0.010616,-0.016059,0.001022
12.195790,0.010616,-0.016059,0.001022
12.205800,0.007438,-0.012880,0.008505
12.215840,0.007404,-0.023544,0.005250
12.225850,0.010628,-0.013943,0.005304
12.235890,-0.004247,-0.000037,0.010670
12.255940,0.006355,-0.020362,0.010603
12.266032,0.008494,-0.016082,0.007425
12.276042,0.017016,-0.013944,0.001049
12.286082,0.007417,-0.024662,0.015927
12.296092,0.004231,-0.011761,-0.000044
12.306132,0.025524,-0.022530,0.004237
12.326182,0.016998,-0.019273,-0.001112
12.326182,0.016998,-0.019273,-0.001112
12.336192,0.005311,-0.010732,0.007441
12.346232,0.002059,-0.029939,0.006273
12.356272,0.001039,-0.007459,-0.004305
12.366282,0.004221,-0.021423,0.010592
12.376322,-0.009616,-0.007434,-0.002198
12.406382,0.006323,-0.025646,-0.001172
12.406382,0.006323,-0.025646,-0.001172
12.416422,-0.004265,-0.005366,0.008509
12.426463,0.004164,-0.032016,-0.007617
12.436472,-0.017075,-0.013878,0.010569
12.446513,-0.003249,-0.017061,-0.003294
12.466563,0.000980,-0.032046,0.000919
12.476573,-0.016034,-0.018113,0.002006
12.486613,0.002094,-0.016046,0.004203
12.496623,0.010588,-0.028899,0.006302
12.506663,-0.034148,-0.014835,-0.001233
12.516703,0.006337,-0.024613,0.006310
12.546763,-0.018144,-0.014943,0.010561
12.546763,-0.018144,-0.014943,0.010561
12.556803,0.021221,-0.036394,0.003091
12.566813,-0.022407,-0.016007,0.012681
12.576853,0.020150,-0.039604,0.005209
12.586894,0.003127,-0.029948,0.007344
12.606944,-0.002196,-0.025644,0.004145
12.616953,0.015871,-0.047081,0.008367
12.626994,-0.021346,-0.013839,0.005217
12.637003,0.004175,-0.037437,0.009448
12.647044,-0.007520,-0.023485,0.003073
12.657054,-0.002210,-0.033139,0.008383
12.687144,-0.004332,-0.024543,-0.001196
12.697184,-0.006485,-0.037397,0.008351
12.707194,-0.019262,-0.027699,-0.001252
12.717234,0.019095,-0.033173,0.000964
12.727244,-0.018186,-0.024503,-0.000166
12.747324,0.010600,-0.022471,0.002059
12.747324,0.010600,-0.022471,0.002059
12.757334,-0.002214,-0.029895,-0.000148
12.767375,-0.020300,-0.019167,0.001990
12.777384,0.006302,-0.033121,-0.001207
12.787425,-0.007535,-0.029903,0.005179
12.797434,-0.021377,-0.019128,-0.005491
12.827525,-0.008622,-0.038448,0.006204
12.827525,-0.008622,-0.038448,0.006204
12.837565,0.002040,-0.030957,-0.004414
12.847575,-0.018205,-0.036291,0.008324
12.857615,-0.022449,-0.024490,-0.000178
12.867625,0.012702,-0.035314,0.006277
12.887675,-0.000091,-0.034184,0.001974
12.887675,-0.000091,-0.034184,0.001974
12.897715,-0.000088,-0.037423,0.009437
12.907755,-0.003273,-0.030990,0.006254
12.917765,-0.013916,-0.020230,-0.003339
12.927805,0.011654,-0.035366,0.018025
12.937815,-0.008562,-0.011709,-0.002215
12.967906,0.007367,-0.034198,-0.000141
12.967906,0.007367,-0.034198,-0.000141
12.977915,-0.042629,-0.005257,0.011608
12.987956,0.003086,-0.038436,-0.004446
12.997996,-0.011760,-0.013850,0.000970
13.008006,-0.014945,-0.012802,0.007376
13.028056,0.012697,-0.038527,0.008399
13.038096,-0.022403,-0.006325,-0.002228
13.048106,0.012710,-0.032105,0.005224
13.058146,-0.002154,-0.011771,0.006348
13.068186,-0.001142,-0.027763,-0.000134
13.078196,0.000989,-0.030999,0.005197
13.108286,-0.003279,-0.032048,0.004112
13.108286,-0.003279,-0.032048,0.004112
13.118296,0.008462,-0.024600,0.002043
13.128336,-0.004343,-0.030971,0.003046
13.138346,0.001010,-0.024601,0.007364
13.148387,0.011644,-0.032101,0.005221
13.178477,0.007394,-0.027821,0.006298
13.178477,0.007394,-0.027821,0.006298
13.188487,-0.020311,-0.023439,0.001969
13.198527,0.025481,-0.040705,0.008424
13.208537,-0.006433,-0.014940,0.002048
13.218577,0.011653,-0.028897,0.005237
13.238627,0.005221,-0.036302,-0.005498
13.248667,-0.009605,-0.011777,0.012736
13.258677,0.026558,-0.031051,-0.001142
13.268737,-0.005396,-0.027779,0.006263
13.278747,-0.008575,-0.021361,0.006285
13.288787,0.019141,-0.018237,0.004239
13.308837,-0.006450,-0.020270,-0.000114
13.318878,0.018052,-0.026777,0.004196
13.328887,-0.008552,-0.011740,0.004194
13.338928,0.010593,-0.027836,0.007375
13.348938,-0.003229,-0.012815,0.002067
13.358978,0.011635,-0.036383,0.007338
13.389068,-0.014934,-0.010681,0.010590
13.389068,-0.014934,-0.010681,0.010590
13.399078,0.004183,-0.030999,0.003070
13.409118,0.008504,-0.011805,0.006377
13.419128,0.019138,-0.020383,0.006366
13.429168,-0.009612,-0.011757,0.008464
13.449218,0.010642,-0.011832,0.010656
13.459228,0.011660,-0.025689,0.004184
13.469268,-0.020263,-0.007435,0.005250
13.479309,0.007392,-0.027816,0.005230
13.489318,-0.006405,-0.005334,0.003162
13.499359,-0.010735,-0.028804,0.000902
13.529418,-0.013912,-0.022397,0.003060
13.539459,-0.020338,-0.026587,-0.009796
13.549469,-0.020279,-0.012770,0.004156
13.559509,0.005246,-0.025607,-0.008652
13.569549,-0.019231,-0.017025,-0.000134
13.589599,-0.005394,-0.020243,-0.006520
13.599609,-0.008579,-0.021351,0.004148
13.609649,-0.003218,-0.005309,-0.004307
13.619659,0.013770,-0.031015,-0.000109
13.629699,-0.018127,-0.005301,0.004198
13.639740,-0.001118,-0.015990,-0.005420
13.659790,-0.009658,-0.022380,-0.003337
13.669799,-0.017087,-0.011687,-0.001171
13.679840,-0.016007,-0.009580,0.004183
13.689849,-0.003261,-0.020255,-0.005446
13.699890,-0.021370,-0.021304,0.003045
13.709899,-0.020291,-0.017041,0.004136
13.739990,-0.021382,-0.023420,-0.001238
13.750030,-0.013915,-0.023465,0.003055
13.760040,-0.013886,-0.012785,0.003106
13.770080,0.002042,-0.033118,0.000917
13.780090,-0.021401,-0.031979,0.001926
13.810180,-0.015016,-0.036276,0.002992
13.810180,-0.015016,-0.036276,0.002992
13.820220,-0.013902,-0.015964,-0.002250
13.830230,0.014819,-0.040660,0.006258
13.840271,-0.012875,-0.029850,-0.002313
13.850280,-0.002203,-0.027774,0.003067
13.860321,-0.012842,-0.019181,-0.000126
13.870330,0.010570,-0.033150,0.002009
13.880371,-0.006466,-0.026682,0.000924
13.890411,-0.011766,-0.015986,0.000960
13.900421,-0.005369,-0.012783,-0.003280
13.910461,0.019085,-0.038528,0.004143
13.920471,-0.034110,-0.000952,-0.001167
13.940521,-0.000042,-0.019258,0.007386
13.950561,-0.000092,-0.029872,-0.006551
13.960601,-0.025628,-0.021306,0.006238
13.970611,0.019111,-0.026761,-0.000074
13.980651,-0.006433,-0.013862,-0.000083
13.990661,-0.015014,-0.037359,0.006191
14.010711,0.015922,-0.026775,0.005258
14.020751,-0.014972,-0.020257,0.003067
14.030761,-0.006463,-0.028849,0.007323
14.040802,0.010570,-0.029916,-0.004385
14.050842,0.004190,-0.033175,0.011605
14.060852,-0.006467,-0.022370,-0.007601
14.080902,-0.006492,-0.031987,-0.006579
14.090942,0.005270,-0.024605,0.005239
14.100952,0.006348,-0.017108,-0.000063
14.110992,0.000998,-0.024566,-0.000113
14.121032,-0.013927,-0.027736,0.003035
14.131042,0.002042,-0.032040,-0.001214
14.151092,0.009559,-0.016085,0.007428
14.161132,-0.007519,-0.020256,-0.002253
14.171142,0.005225,-0.039546,0.003032
14.181182,-0.006423,-0.009586,-0.001131
14.191192,-0.004319,-0.019199,-0.002239
14.201232,-0.005427,-0.035219,-0.001250
14.221282,-0.005397,-0.022389,-0.004394
14.231323,0.002043,-0.030967,-0.002277
14.241333,-0.021352,-0.013819,0.000944
14.251373,-0.006457,-0.021328,-0.002255
14.261394,-0.002233,-0.035220,-0.003377
14.271434,-0.006426,-0.013883,0.004189
14.291484,0.009502,-0.034215,0.002001
14.301524,-0.008574,-0.015981,-0.002236
14.311534,0.004218,-0.017106,0.000999
14.321574,-0.010723,-0.022382,-0.002272
14.331584,0.007404,-0.022466,0.003119
14.341624,0.008484,-0.016052,0.001016
14.371715,0.019107,-0.028901,0.000984
14.371715,0.019107,-0.028901,0.000984
14.381724,-0.018166,-0.013794,-0.006525
14.391765,-0.005400,-0.030998,0.009452
14.401774,-0.003269,-0.021308,-0.008656
14.411815,-0.005424,-0.034151,-0.001245
14.431865,0.005284,-0.012802,-0.006455
14.441905,-0.017107,-0.024547,0.008382
14.451915,-0.006475,-0.025579,-0.006548
14.461955,0.009561,-0.009627,-0.003224
14.471965,0.006370,-0.010715,0.003172
14.482005,-0.012839,-0.014884,-0.005447
14.512065,-0.009604,-0.004241,-0.000047
14.522105,0.006335,-0.021374,-0.001152
14.532146,0.001030,-0.010662,-0.004320
14.542155,-0.010687,-0.010645,-0.000080
14.552196,-0.005365,-0.010642,-0.004338
14.572246,-0.014951,-0.009553,-0.002223
14.582255,-0.004314,-0.013829,-0.008623
14.592296,-0.011760,-0.013850,0.000970
14.602336,-0.020300,-0.012704,-0.009730
14.612346,-0.005376,-0.017070,-0.000096
14.622386,-0.007534,-0.021289,-0.009735
14.652446,0.005255,-0.023481,-0.006506
14.662486,-0.018157,-0.013824,-0.000116
14.672496,0.001032,-0.010668,-0.003252
14.682536,-0.001171,-0.034135,-0.007642
14.692576,-0.018142,-0.009563,0.002041
14.712626,-0.007514,-0.018120,-0.002243
14.722636,-0.009663,-0.023443,-0.004410
14.732677,-0.008584,-0.017024,-0.007582
14.742686,-0.010695,-0.011697,-0.003290
14.752727,-0.021325,-0.000978,-0.004336
14.762767,-0.003263,-0.020250,-0.006514
14.782817,-0.020298,-0.014865,-0.004399
14.782817,-0.020298,-0.014865,-0.004399
14.802867,-0.000051,-0.018150,-0.001154
14.812877,-0.012837,-0.014889,-0.004379
14.822917,-0.012818,-0.009565,-0.001149
14.822917,-0.012818,-0.009565,-0.001149
14.842967,0.000990,-0.024540,-0.005454
14.873057,-0.001084,-0.004248,-0.004296
14.883067,-0.001116,-0.021380,0.005237
14.893107,0.003134,-0.020276,-0.005428
14.903117,-0.001102,-0.016041,0.005262
14.913158,-0.003215,-0.006397,-0.000039
14.933208,-0.018144,-0.011709,0.004167
14.933208,-0.018144,-0.011709,0.004167
14.953258,0.014874,-0.017135,-0.000040
14.963298,-0.001120,-0.020292,0.000969
14.973308,-0.019224,-0.012738,-0.003318
14.983348,0.006339,-0.021389,0.002053
14.993358,-0.000047,-0.014931,-0.004344
15.003398,-0.000058,-0.022437,0.002030
15.003398,-0.000058,-0.022437,0.002030
15.013438,-0.016014,-0.008481,-0.002221
15.023448,0.013746,-0.037402,-0.004412
15.033488,-0.010705,-0.014896,-0.004373
15.043498,-0.002208,-0.027759,-0.000137
15.053538,-0.013904,-0.017037,-0.001187
15.083598,0.010558,-0.034188,-0.004405
15.083598,0.010558,-0.034188,-0.004405
15.093638,-0.007496,-0.012791,-0.000081
15.103679,0.013765,-0.029922,-0.005445
15.113689,-0.014979,-0.019159,-0.003337
15.123729,0.005257,-0.023486,-0.005438
15.153789,-0.003256,-0.020270,-0.002241
15.153789,-0.003256,-0.020270,-0.002241
15.163829,0.005251,-0.027778,-0.001185
15.173869,-0.007542,-0.026649,-0.005488
15.183879,0.004209,-0.019231,-0.001148
15.193919,-0.000081,-0.027751,-0.003336
15.223979,0.005286,-0.014963,-0.001124
15.223979,0.005286,-0.014963,-0.001124
15.234019,-0.007544,-0.029873,-0.001230
15.244029,-0.009645,-0.019192,-0.000117
15.254069,0.007366,-0.029886,-0.008667
15.264156,-0.011739,-0.008531,0.005268
15.294215,-0.018147,-0.009547,-0.001164
15.294215,-0.018147,-0.009547,-0.001164
15.304256,-0.005368,-0.009554,-0.008606
15.314266,-0.019251,-0.025578,0.001962
15.324306,-0.019215,-0.005227,-0.010760
15.334346,-0.005376,-0.017070,-0.000096
15.354396,-0.008609,-0.027718,-0.004428
15.364406,-0.017072,-0.004191,-0.005408
15.374446,0.012714,-0.025657,-0.003291
15.384456,-0.012842,-0.019181,-0.000126
15.394496,-0.005427,-0.030912,-0.008707
15.404506,0.007427,-0.012844,0.001028
15.434596,0.006308,-0.030986,-0.001197
15.434596,0.006308,-0.030986,-0.001197
15.444637,-0.001130,-0.023491,-0.000114
15.454646,-0.002239,-0.036277,-0.005519
15.464687,-0.027753,-0.014856,-0.001215
15.474696,0.003085,-0.037357,-0.006577
15.504787,-0.021368,-0.015924,-0.005475
15.504787,-0.021368,-0.015924,-0.005475
15.514827,-0.006494,-0.033060,-0.005515
15.524837,-0.034149,-0.012679,-0.005495
15.534877,-0.008601,-0.022358,-0.008675
15.544887,-0.023482,-0.008432,-0.007582
15.574977,-0.014987,-0.018056,-0.010809
15.574977,-0.014987,-0.018056,-0.010809
15.585017,-0.021333,-0.003109,-0.005415
15.595027,-0.008591,-0.017003,-0.011855
15.605068,-0.013918,-0.018069,-0.008670
15.615077,-0.023457,0.000107,-0.006474
15.645168,-0.005364,-0.008491,-0.007532
15.645168,-0.005364,-0.008491,-0.007532
15.655208,0.003162,-0.010669,-0.004315
15.665218,-0.006469,-0.024521,-0.004407
15.675258,-0.026654,-0.000961,-0.004351
15.685268,0.014859,-0.020319,-0.004328
15.705318,-0.004311,-0.013839,-0.006487
15.715358,-0.008539,-0.006395,0.003151
15.725368,-0.005412,-0.024494,-0.010813
15.735408,-0.012819,-0.011716,0.002046
15.745448,0.001011,-0.017065,-0.005419
15.755458,-0.020287,-0.011666,-0.003316
15.785548,-0.011778,-0.021336,0.003071
15.785548,-0.011778,-0.021336,0.003071
15.795558,0.007395,-0.020284,-0.006485
15.805599,0.004206,-0.021377,0.000979
15.815608,-0.001122,-0.019209,-0.002230
15.825649,0.008450,-0.025638,-0.004371
15.835689,-0.000035,-0.013893,0.002071
15.845699,0.008455,-0.022424,-0.006492
15.855739,-0.010704,-0.015979,-0.001173
15.865749,0.010603,-0.018174,-0.003261
15.875789,0.009526,-0.022442,-0.003284
15.885799,-0.002188,-0.018128,-0.004365
15.895839,0.001024,-0.011720,-0.006462
15.905879,0.014839,-0.028872,-0.002232
15.915889,0.007379,-0.025619,-0.007578
15.925929,-0.005360,-0.010657,-0.001133
15.935939,0.018028,-0.028857,-0.007564
15.945979,0.010583,-0.025650,-0.003297
15.955989,-0.004337,-0.024528,-0.004401
15.966029,0.009496,-0.032044,-0.005466
15.976039,0.016972,-0.028884,-0.001158
15.986079,0.003131,-0.020266,-0.007565
15.996120,0.009516,-0.026719,-0.002237
16.006130,0.015900,-0.028861,-0.005434
16.016170,0.007391,-0.021347,-0.007558
16.026180,-0.000084,-0.028819,-0.003341
16.036220,-0.000058,-0.018129,-0.005427
16.046230,0.014849,-0.024596,-0.003280
16.056270,-0.000077,-0.023454,-0.008657
16.066310,-0.007488,-0.010660,0.000997
16.076320,-0.002207,-0.022374,-0.009726
16.086360,0.000972,-0.028792,-0.009747
16.096370,-0.013843,0.003239,0.002113
16.106410,0.022269,-0.033108,-0.015050
16.126460,0.007398,-0.017060,-0.010742
16.126460,0.007398,-0.017060,-0.010742
16.136470,0.006334,-0.018140,-0.007546
16.146510,-0.010697,-0.015999,0.003099
16.156551,0.010583,-0.018108,-0.017148
16.166560,-0.005363,-0.016032,0.006319
16.176601,-0.001136,-0.021320,-0.007581
16.196651,-0.008579,-0.018117,-0.002246
16.206661,-0.012870,-0.023402,-0.010828
16.216701,-0.000068,-0.022406,-0.004379
16.226741,-0.016027,-0.010592,-0.007572
16.236751,-0.013932,-0.021258,-0.011889
16.246791,-0.008618,-0.028766,-0.008706
16.276878,-0.006485,-0.027700,-0.009763
16.286918,-0.017135,-0.024461,-0.009777
16.296928,-0.013947,-0.028749,-0.008720
16.306968,-0.003297,-0.030914,-0.009769
16.317009,-0.019264,-0.025538,-0.006583
16.347068,-0.008611,-0.032020,0.001961
16.347068,-0.008611,-0.032020,0.001961
16.357109,0.004165,-0.028787,-0.012943
16.367118,0.003123,-0.028860,0.003077
16.377159,0.011619,-0.033098,-0.009738
16.387199,0.004185,-0.027775,-0.001188
16.407249,0.022248,-0.041661,-0.012954
16.417259,-0.020290,-0.018119,0.006267
16.427299,0.010532,-0.038414,-0.014039
16.437309,0.002076,-0.021376,0.002041
16.447349,-0.006489,-0.031997,-0.004442
16.457359,-0.022481,-0.030852,-0.009822
16.487449,-0.008634,-0.035178,-0.007668
16.487449,-0.008634,-0.035178,-0.007668
16.497490,-0.007532,-0.026679,0.000921
16.507499,0.014798,-0.036282,-0.016154
16.517540,-0.008607,-0.034186,0.008360
16.527549,-0.000097,-0.028778,-0.011887
16.547630,0.011644,-0.031023,0.003090
16.557640,0.007355,-0.030928,-0.014013
16.567680,-0.001128,-0.024574,0.003085
16.577690,0.010580,-0.025640,-0.005433
16.587730,0.013761,-0.029907,-0.008649
16.597740,-0.004305,-0.017088,0.003112
16.627830,0.004169,-0.027724,-0.011870
16.627830,0.004169,-0.027724,-0.011870
16.637870,-0.008591,-0.021311,-0.004397
16.647880,0.007398,-0.023524,0.000977
16.657920,0.013781,-0.020275,-0.012876
16.667930,-0.000045,-0.018170,0.003119
16.687980,0.013803,-0.019268,-0.000053
16.698021,0.012760,-0.009643,-0.002147
16.708030,0.014842,-0.023497,-0.009684
16.718071,0.005253,-0.028861,0.002014
16.728111,0.009549,-0.013899,-0.003244
16.738121,0.014856,-0.021387,-0.004333
16.768211,0.000979,-0.028812,-0.005475
16.768211,0.000979,-0.028812,-0.005475
16.778221,-0.001166,-0.033072,-0.006569
16.788261,0.014868,-0.018193,-0.002181
16.798301,0.009527,-0.020291,-0.006479
16.808311,-0.005414,-0.029875,-0.002293
16.838401,-0.023509,-0.021272,-0.002302
16.838401,-0.023509,-0.021272,-0.002302
16.848411,0.013777,-0.024572,-0.007556
16.858451,0.006300,-0.030960,-0.006538
16.868461,-0.009672,-0.025569,-0.006557
16.878501,0.007397,-0.021368,-0.003285
16.908592,0.005264,-0.021356,-0.004359
16.918602,0.007352,-0.037381,-0.004429
16.928642,-0.007535,-0.021284,-0.010804
16.938652,-0.003264,-0.022401,-0.003320
16.948692,0.015883,-0.033117,-0.008658
16.978782,0.008479,-0.013880,-0.006452
16.978782,0.008479,-0.013880,-0.006452
16.988792,-0.012873,-0.029855,-0.001245
16.998832,-0.014994,-0.020186,-0.011887
17.008842,0.009520,-0.023500,-0.005426
17.018882,-0.008606,-0.025572,-0.006554
17.038932,-0.004332,-0.023465,-0.003328
17.048973,-0.002218,-0.025573,-0.010809
17.058982,-0.004337,-0.025606,-0.002270
17.069023,0.004177,-0.027750,-0.006529
17.079033,-0.007539,-0.025581,-0.005483
17.089073,0.001016,-0.018158,-0.000083
17.119163,-0.010708,-0.018120,-0.000115
17.129173,0.035087,-0.028933,-0.003245
17.139213,0.004229,-0.018219,0.010608
17.149223,0.013768,-0.027776,-0.007571
17.159263,0.007392,-0.026738,0.003099
17.179313,0.008460,-0.021361,-0.005419
17.179313,0.008460,-0.021361,-0.005419
17.189323,-0.002191,-0.024581,0.005219
17.199363,-0.009660,-0.021297,-0.006537
17.209404,0.006306,-0.029903,-0.004397
17.219413,0.008438,-0.032066,-0.000128
17.229454,-0.010698,-0.013843,-0.001163
17.259513,0.026561,-0.029983,-0.001137
17.269570,0.006326,-0.024578,-0.001167
17.279610,0.004184,-0.026692,-0.004388
17.289620,0.027643,-0.023574,-0.002172
17.299660,0.019106,-0.026745,-0.003278
17.319710,0.020176,-0.023530,-0.006465
17.319710,0.020176,-0.023530,-0.006465
17.329720,0.012738,-0.018191,-0.001119
17.339760,0.008430,-0.029884,-0.009732
17.349770,0.009523,-0.023510,-0.003290
17.359810,-0.010700,-0.009526,-0.010757
17.369851,0.011608,-0.035219,-0.012953
17.389901,-0.004344,-0.021274,-0.015068
17.399910,-0.005402,-0.022374,-0.007598
17.409951,-0.007520,-0.012715,-0.016104
17.419960,0.003122,-0.023469,-0.007580
17.430001,-0.001152,-0.025576,-0.010806
17.440010,0.006286,-0.036300,-0.006564
17.460091,0.009515,-0.023485,-0.008631
17.470101,0.002061,-0.025637,-0.000116
17.480141,0.010511,-0.046968,-0.011943
17.490151,-0.012879,-0.031991,-0.001255
17.500191,0.005229,-0.029864,-0.011877
17.510201,0.006281,-0.036285,-0.009768
17.540291,-0.003302,-0.034128,-0.007648
17.550331,-0.011816,-0.035219,0.003005
17.560341,-0.011840,-0.035143,-0.013018
17.570382,-0.006479,-0.027720,-0.005490
17.580391,-0.009649,-0.020254,-0.001191
17.600441,-0.009684,-0.030919,-0.004446
17.610482,-0.000073,-0.021313,-0.009715
17.620522,0.003092,-0.031993,-0.011893
17.630532,-0.004363,-0.034140,-0.004446
17.640572,0.000982,-0.022359,-0.015058
17.650582,0.004172,-0.025578,-0.013996
17.670632,0.006293,-0.027706,-0.017205
17.680672,0.003106,-0.025575,-0.013999
17.690712,-0.016093,-0.030852,-0.014077
17.700722,0.002041,-0.022342,-0.019328
17.710762,0.014805,-0.035229,-0.012944
17.720772,-0.019278,-0.022263,-0.021523
17.740822,0.007349,-0.033064,-0.014023
17.750862,-0.017167,-0.027589,-0.025815
17.760872,-0.001166,-0.026609,-0.018289
17.770913,-0.004341,-0.020206,-0.015063
17.780953,-0.007607,-0.039368,-0.025844
17.790963,0.002013,-0.035178,-0.015116
17.811013,0.000945,-0.033013,-0.020450
17.821053,0.003099,-0.029862,-0.010815
17.831063,0.019058,-0.030901,-0.027867
17.841103,0.008436,-0.028826,-0.007591
17.851143,0.005241,-0.024514,-0.013988
17.861153,0.019043,-0.037318,-0.025761
17.881203,0.009460,-0.035161,-0.023641
17.891243,-0.007556,-0.025525,-0.017233
17.901253,0.004141,-0.034096,-0.019378
17.911293,-0.015015,-0.021199,-0.023642
17.921303,-0.005440,-0.029794,-0.019384
17.931343,0.000944,-0.031935,-0.022581
17.951393,-0.008632,-0.026569,-0.021514
17.951393,-0.008632,-0.026569,-0.021514
17.961434,0.013710,-0.038364,-0.026849
17.971444,0.002018,-0.026579,-0.026825
17.981484,-0.001133,-0.011632,-0.023559
17.991494,0.027557,-0.041613,-0.026826
18.001534,-0.005445,-0.029778,-0.022588
18.021584,0.010554,-0.025559,-0.022524
18.031624,0.006242,-0.039392,-0.030079
18.041634,-0.002251,-0.026545,-0.031110
18.051674,0.004164,-0.018012,-0.033188
18.061684,-0.000134,-0.030813,-0.033261
18.071724,-0.008661,-0.031863,-0.031153
18.091774,-0.002253,-0.025461,-0.034310
18.101815,0.005191,-0.034049,-0.030057
18.111824,0.007357,-0.019085,-0.034253
18.121865,0.016926,-0.028738,-0.032136
18.131874,0.010548,-0.025538,-0.026797
18.141915,0.011620,-0.020177,-0.032110
18.161965,0.004176,-0.013740,-0.033168
18.171975,0.011607,-0.025522,-0.031067
18.182015,0.011614,-0.022313,-0.032120
18.192055,0.006301,-0.015883,-0.033172
18.202065,0.006285,-0.020139,-0.036397
18.212105,-0.005440,-0.022252,-0.033235
18.232155,-0.006491,-0.012602,-0.040670
18.242165,-0.003322,-0.026526,-0.034317
18.252205,-0.008654,-0.021113,-0.046057
18.262246,0.014764,-0.036176,-0.038586
18.272273,-0.000110,-0.019041,-0.038546
18.282314,-0.003345,-0.028606,-0.046078
18.292323,0.005181,-0.034019,-0.036466
18.302364,0.009448,-0.023273,-0.053495
18.312373,0.005182,-0.031868,-0.039660
18.322414,-0.001225,-0.033963,-0.043961
18.332423,0.013697,-0.029704,-0.051377
18.342464,0.009457,-0.026532,-0.041760
18.352504,0.007290,-0.035033,-0.049283
18.382564,-0.001180,-0.015793,-0.052432
18.392604,-0.005484,-0.030730,-0.047162
18.402614,-0.011850,-0.017874,-0.051392
18.412654,0.014772,-0.024353,-0.054553
18.422694,0.010515,-0.028666,-0.042835
18.442744,0.007333,-0.020087,-0.048144
18.452754,0.019055,-0.020120,-0.049180
18.462795,0.003062,-0.018970,-0.055628
18.472804,0.008403,-0.019028,-0.047068
18.482845,0.013731,-0.014733,-0.055579
18.492854,0.025444,-0.023355,-0.047042
18.512935,0.017975,-0.021149,-0.056666
18.512935,0.017975,-0.021149,-0.056666
18.522945,0.011608,-0.016907,-0.045981
18.542995,0.023286,-0.029725,-0.053487
18.553035,0.010509,-0.025417,-0.052434
18.553035,0.010509,-0.025417,-0.052434
18.573085,0.025428,-0.027611,-0.050266
18.593135,0.011590,-0.019003,-0.054537
18.603175,0.025415,-0.031878,-0.051355
18.613185,0.022189,-0.033933,-0.066328
18.623225,0.020116,-0.019030,-0.054513
18.623225,0.020116,-0.019030,-0.054513
18.633235,0.032874,-0.025434,-0.064122
18.653285,0.025424,-0.024367,-0.058797
18.683376,0.021147,-0.025386,-0.066291
18.683376,0.021147,-0.025386,-0.066291
18.703426,0.015816,-0.026441,-0.065242
18.703426,0.015816,-0.026441,-0.065242
18.713466,0.026440,-0.036062,-0.070600
18.723476,0.016916,-0.014703,-0.064116
18.753566,0.036059,-0.028638,-0.066265
18.753566,0.036059,-0.028638,-0.066265
18.773616,0.031811,-0.025441,-0.061989
18.773616,0.031811,-0.025441,-0.061989
18.783656,0.029684,-0.017908,-0.072641
18.793666,0.023326,-0.010462,-0.061941
18.823756,0.014778,-0.015754,-0.066263
18.833797,0.003070,-0.007147,-0.071596
18.853847,0.007280,-0.026383,-0.071675
18.853847,0.007280,-0.026383,-0.071675
18.863857,-0.010796,-0.009223,-0.074848
18.883907,0.016895,-0.020022,-0.068414
18.893947,0.008354,-0.019949,-0.078051
18.903957,0.007306,-0.020001,-0.066304
18.913997,0.032858,-0.025383,-0.074804
18.924037,0.026459,-0.029660,-0.069501
18.934047,0.016904,-0.016818,-0.068398
18.964137,0.030728,-0.027538,-0.069479
18.964137,0.030728,-0.027538,-0.069479
18.974147,0.019009,-0.022130,-0.075895
18.984187,0.018996,-0.031781,-0.067395
18.994228,0.024318,-0.030700,-0.073785
19.004237,0.011568,-0.014625,-0.076949
19.034328,0.008386,-0.012509,-0.070538
19.044337,0.013680,-0.022112,-0.075910
19.054378,0.022202,-0.028588,-0.067371
19.064388,0.029670,-0.020018,-0.077992
19.074428,0.017981,-0.011472,-0.070507
19.104518,0.024403,-0.006194,-0.061918
19.104518,0.024403,-0.006194,-0.061918
19.114528,0.045656,-0.023299,-0.072623
19.124568,0.040348,-0.022270,-0.060882
19.134578,0.042471,-0.021173,-0.068348
19.144618,0.025424,-0.018982,-0.068385
19.174709,0.027574,-0.015815,-0.061955
19.174709,0.027574,-0.015815,-0.061955
19.184718,0.033944,-0.020067,-0.070503
19.194759,0.033948,-0.020078,-0.068367
19.204768,0.023312,-0.013651,-0.065161
19.214809,0.033943,-0.020062,-0.071571
19.244899,0.028610,-0.018957,-0.075854
19.244899,0.028610,-0.018957,-0.075854
19.254909,0.024379,-0.013659,-0.064090
19.264966,0.026468,-0.025378,-0.071617
19.274976,0.032870,-0.022190,-0.072653
19.285016,0.019061,-0.009365,-0.065153
19.325116,0.019029,-0.016805,-0.072665
19.325116,0.019029,-0.016805,-0.072665
19.335157,0.025412,-0.023254,-0.068405
19.345166,0.017959,-0.014635,-0.079067
19.355207,0.005172,-0.018911,-0.069509
19.365216,0.021147,-0.022157,-0.071617
19.375257,0.027509,-0.031769,-0.075917
19.385266,0.000926,-0.014641,-0.066296
19.395307,0.021160,-0.015734,-0.074791
19.405347,0.023272,-0.026451,-0.068426
19.415357,0.015818,-0.021061,-0.073763
19.425397,0.007304,-0.018918,-0.069503
19.445447,0.022229,-0.014669,-0.074783
19.445447,0.022229,-0.014669,-0.074783
19.455457,0.019017,-0.025384,-0.065229
19.465497,0.017966,-0.015734,-0.072663
19.475507,0.022220,-0.022180,-0.067341
19.485547,0.010521,-0.013604,-0.066265
19.495587,0.027540,-0.020016,-0.076930
19.525647,0.024346,-0.021094,-0.072671
19.525647,0.024346,-0.021094,-0.072671
19.535688,0.009451,-0.016819,-0.063078
19.545697,0.021117,-0.029602,-0.078061
19.555738,0.008385,-0.014660,-0.067344
19.565778,0.021143,-0.023220,-0.072690
19.585828,0.012621,-0.023207,-0.069509
19.595838,0.014735,-0.028543,-0.071665
19.605878,0.039241,-0.030754,-0.072676
19.615888,0.024337,-0.024298,-0.072686
19.625928,0.014736,-0.026392,-0.074859
19.635938,0.039213,-0.039282,-0.075921
19.666028,0.031777,-0.031798,-0.072701
19.666028,0.031777,-0.031798,-0.072701
19.676068,0.039217,-0.037141,-0.076979
19.686078,0.021132,-0.025340,-0.075905
19.696118,0.033917,-0.027523,-0.074811
19.706128,0.057318,-0.044686,-0.074828
19.726209,0.038167,-0.029647,-0.080151
19.736219,0.049866,-0.041458,-0.074833
19.746259,0.034988,-0.025385,-0.075867
19.756269,0.037120,-0.022163,-0.081186
19.766309,0.040296,-0.033956,-0.073756
19.776319,0.057335,-0.033966,-0.083323
19.796369,0.036022,-0.033907,-0.081245
19.806409,0.048808,-0.032860,-0.085478
19.816449,0.046700,-0.026466,-0.081180
19.826459,0.034952,-0.030659,-0.089778
19.836499,0.032827,-0.031750,-0.083380
19.846509,0.048815,-0.028573,-0.088662
19.876599,0.052009,-0.027496,-0.092921
19.886640,0.044546,-0.030695,-0.088684
19.896649,0.038174,-0.019975,-0.092924
19.906690,0.059449,-0.034995,-0.092936
19.916699,0.043504,-0.022148,-0.088646
19.936750,0.048816,-0.026422,-0.091856
19.946790,0.048818,-0.023198,-0.096114
19.956800,0.042404,-0.028502,-0.099361
19.966840,0.032833,-0.022073,-0.097221
19.976880,0.034958,-0.023138,-0.099357
19.986890,0.045591,-0.030633,-0.102567
20.016980,0.029611,-0.028450,-0.101533
20.016980,0.029611,-0.028450,-0.101533
20.026990,0.027479,-0.025209,-0.107933
20.037030,0.035993,-0.028431,-0.110061
20.047040,0.025339,-0.028406,-0.107954
20.057080,0.032784,-0.031614,-0.112221
20.077130,0.045577,-0.032744,-0.107918
20.087171,0.038101,-0.034825,-0.114358
20.097180,0.045594,-0.025258,-0.110019
20.107221,0.051966,-0.033822,-0.110042
20.117230,0.042364,-0.034839,-0.114347
20.127271,0.060505,-0.029583,-0.108930
20.147321,0.050883,-0.035919,-0.117533
20.157361,0.054120,-0.027437,-0.106802
20.167371,0.070061,-0.034883,-0.123884
20.177411,0.039200,-0.025237,-0.110037
20.187421,0.062608,-0.033806,-0.120695
20.197461,0.054071,-0.038055,-0.119670
20.227552,0.048748,-0.035902,-0.119675
20.237561,0.034908,-0.026210,-0.127145
20.247602,0.062600,-0.033781,-0.126036
20.257611,0.047668,-0.038009,-0.125029
20.267699,0.044485,-0.030503,-0.129275
20.287749,0.058334,-0.035913,-0.123921
20.297789,0.052995,-0.034787,-0.132477
20.307799,0.050870,-0.033723,-0.130341
20.317839,0.066853,-0.036993,-0.127108
20.327849,0.059359,-0.044404,-0.135709
20.337889,0.040197,-0.037950,-0.132527
20.357939,0.047628,-0.043268,-0.142145
20.367949,0.018877,-0.036792,-0.136853
20.377989,0.051904,-0.037937,-0.143177
20.388029,0.031652,-0.042173,-0.136843
20.398039,0.027381,-0.041056,-0.144327
20.408079,0.039089,-0.044278,-0.148583
20.438139,0.026297,-0.047460,-0.144361
20.438139,0.026297,-0.047460,-0.144361
20.448180,0.023110,-0.036710,-0.157137
20.458220,0.025245,-0.037805,-0.152864
20.468230,0.029484,-0.044206,-0.157155
20.478270,0.020983,-0.035640,-0.156070
20.488280,0.017761,-0.039861,-0.164644
20.498320,0.026278,-0.047399,-0.157179
20.508330,0.023099,-0.037752,-0.162483
20.518370,0.028407,-0.043089,-0.166767
20.528380,0.017778,-0.035604,-0.161420
20.538420,0.028396,-0.044132,-0.172113
20.548460,0.014535,-0.051608,-0.162572
20.578520,0.013469,-0.045141,-0.174295
20.578520,0.013469,-0.045141,-0.174295
20.588560,0.009244,-0.033400,-0.169978
20.598570,0.036949,-0.035626,-0.169912
20.608610,0.018811,-0.040892,-0.173192
20.618620,0.025210,-0.038772,-0.174233
20.638701,0.027339,-0.039846,-0.174232
20.638701,0.027339,-0.039846,-0.174232
20.648711,0.025224,-0.034505,-0.173144
20.658751,0.049726,-0.036705,-0.176291
20.668761,0.032701,-0.027044,-0.175225
20.678801,0.034798,-0.039866,-0.175279
20.688811,0.052904,-0.042040,-0.179513
20.718901,0.062493,-0.042061,-0.181623
20.718901,0.062493,-0.042061,-0.181623
20.728941,0.033741,-0.032351,-0.182724
20.738951,0.012444,-0.021567,-0.190210
20.748991,0.062470,-0.049527,-0.183794
20.759001,0.035843,-0.038725,-0.191294
20.769041,0.034806,-0.025886,-0.195509
20.779051,0.051843,-0.039896,-0.180574
20.789091,0.053932,-0.043000,-0.203015
20.799132,0.034803,-0.029110,-0.191252
20.809141,0.065661,-0.043053,-0.199778
20.819182,0.060330,-0.043031,-0.200861
20.829192,0.043311,-0.031234,-0.199784
20.849242,0.064558,-0.051553,-0.208367
20.859282,0.057154,-0.033394,-0.204029
20.869322,0.056097,-0.028031,-0.208279
20.879332,0.059249,-0.041904,-0.212609
20.889372,0.066736,-0.035546,-0.207217
20.899382,0.069935,-0.032332,-0.211466
20.929472,0.073137,-0.031280,-0.210384
20.929472,0.073137,-0.031280,-0.210384
20.939482,0.066732,-0.033380,-0.213616
20.949522,0.068861,-0.034455,-0.213615
20.959563,0.071033,-0.020589,-0.211407
20.969572,0.079500,-0.038741,-0.217879
20.989622,0.065707,-0.017347,-0.215680
20.989622,0.065707,-0.017347,-0.215680
20.999663,0.073127,-0.029093,-0.221056
21.009672,0.073128,-0.031250,-0.216793
21.019713,0.076364,-0.015226,-0.219913
21.029753,0.072063,-0.028017,-0.222122
21.039763,0.058204,-0.026884,-0.226428
21.059813,0.077383,-0.026931,-0.229579
21.069853,0.050766,-0.014004,-0.234933
21.079863,0.065692,-0.016224,-0.227425
21.089903,0.068862,-0.020455,-0.238118
21.099913,0.047550,-0.017167,-0.241366
21.109953,0.051851,-0.008683,-0.231700
21.130003,0.030517,-0.012865,-0.236052
21.140044,0.049728,0.000991,-0.243411
21.150053,0.077360,-0.022548,-0.253059
21.160094,0.045429,-0.015039,-0.238157
21.170103,0.049692,-0.006434,-0.254128
21.180144,0.059291,-0.008641,-0.245566
21.200194,0.056057,-0.018212,-0.252030
21.210234,0.065690,-0.008677,-0.242344
21.220244,0.069967,-0.003347,-0.243375
21.230284,0.060324,-0.018236,-0.249881
21.240294,0.056095,-0.008636,-0.244507
21.250334,0.063539,-0.011839,-0.249842
21.270407,0.063557,-0.007587,-0.245549
21.280447,0.060340,-0.012901,-0.248788
21.290457,0.035862,-0.001085,-0.246663
21.300497,0.059275,-0.013976,-0.246660
21.310507,0.056099,-0.005417,-0.247696
21.320548,0.053967,-0.005410,-0.247702
21.340598,0.049715,-0.002198,-0.246630
21.350607,0.049728,-0.000087,-0.241279
21.360648,0.069947,-0.008671,-0.246605
21.370688,0.060369,-0.005451,-0.243412
21.380698,0.071021,-0.008700,-0.241261
21.390738,0.056133,0.004169,-0.242310
21.420798,0.068885,-0.008678,-0.244472
21.420798,0.068885,-0.008678,-0.244472
21.430838,0.061413,-0.009696,-0.249838
21.440878,0.066714,-0.018242,-0.253068
21.450888,0.044374,-0.006452,-0.246665
21.460928,0.067764,-0.019272,-0.261616
21.490988,0.042182,-0.015950,-0.269149
21.490988,0.042182,-0.015950,-0.269149
21.501029,0.041142,-0.010643,-0.261649
21.511038,0.064563,-0.012789,-0.275481
21.521079,0.033676,-0.008447,-0.269137
21.531119,0.040046,-0.015928,-0.272359
21.541129,0.057052,-0.022300,-0.291570
21.551169,0.037928,-0.013811,-0.267014
21.561179,0.048565,-0.007316,-0.292591
21.571219,0.047497,-0.010537,-0.288336
21.581229,0.035777,-0.016972,-0.274512
21.591269,0.060254,-0.014784,-0.302208
21.601309,0.047531,-0.003102,-0.279755
21.621359,0.045357,-0.008348,-0.297946
21.631369,0.051781,-0.005231,-0.284026
21.641409,0.058133,-0.012657,-0.298999
21.651419,0.048564,-0.008389,-0.291528
21.661459,0.054942,-0.011588,-0.296866
21.671469,0.043233,-0.007289,-0.294742
21.681509,0.058156,-0.006264,-0.295764
21.691550,0.061342,-0.007317,-0.301101
21.701560,0.041100,-0.007277,-0.295816
21.711600,0.052812,-0.010509,-0.297935
21.721610,0.068792,-0.010540,-0.302164
21.731650,0.051789,0.002285,-0.292537
21.741660,0.061329,-0.011584,-0.302190
21.761710,0.053882,-0.008371,-0.298990
21.771750,0.057091,0.002353,-0.310681
21.781790,0.062417,-0.003039,-0.303214
21.791800,0.053901,0.003417,-0.307480
21.801840,0.053892,0.003447,-0.313889
21.811850,0.063491,-0.000917,-0.301065
21.831900,0.052856,0.011974,-0.309579
21.831900,0.052856,0.011974,-0.309579
21.841940,0.062402,-0.002993,-0.312828
21.851981,0.043285,0.021631,-0.312765
21.861990,0.061406,0.020489,-0.309515
21.872031,0.081561,-0.011594,-0.313884
21.882040,0.044328,0.012006,-0.310671
21.902091,0.065593,-0.001905,-0.319224
21.912131,0.046406,-0.002911,-0.319281
21.922141,0.065598,0.002386,-0.323476
21.932181,0.062414,0.006663,-0.322396
21.942221,0.059161,-0.013617,-0.322501
21.952231,0.057066,0.001356,-0.325641
21.972281,0.062386,-0.004021,-0.321379
21.982321,0.080488,-0.007258,-0.326685
21.992331,0.094332,-0.012653,-0.324536
22.002371,0.089009,-0.011578,-0.322409
22.012412,0.090054,-0.017979,-0.324573
22.022421,0.106050,-0.014827,-0.324514
22.042471,0.090067,-0.015863,-0.320290
22.052512,0.091102,-0.024390,-0.324600
22.062521,0.108172,-0.021267,-0.319197
22.072562,0.086882,-0.010508,-0.321342
22.082571,0.083660,-0.019036,-0.322459
22.092612,0.092196,-0.014787,-0.323484
22.112662,0.096485,-0.009497,-0.315969
22.122702,0.099650,-0.014791,-0.327736
22.132712,0.099666,-0.019149,-0.309597
22.142752,0.085826,-0.002994,-0.328787
22.152762,0.120981,-0.017062,-0.313801
22.162802,0.092248,0.000129,-0.315936
22.182852,0.093304,-0.005230,-0.312753
22.192893,0.099693,-0.004152,-0.319140
22.202902,0.101839,-0.000976,-0.314846
22.212943,0.109266,-0.011664,-0.318081
22.222952,0.099702,-0.003104,-0.314862
22.232993,0.105012,-0.006295,-0.321272
22.253043,0.091154,-0.007318,-0.321315
22.263083,0.097555,-0.004125,-0.323419
22.273111,0.102838,-0.021234,-0.322417
22.283151,0.082608,-0.011537,-0.326700
22.283151,0.082608,-0.011537,-0.326700
22.303201,0.078323,-0.020071,-0.325684
22.323251,0.092136,-0.030755,-0.334242
22.323251,0.092136,-0.030755,-0.334242
22.343301,0.082539,-0.030709,-0.337473
22.353341,0.081457,-0.036040,-0.338569
22.363351,0.083566,-0.041361,-0.343929
22.363351,0.083566,-0.041361,-0.343929
22.373391,0.076114,-0.042440,-0.336478
22.403451,0.062254,-0.041302,-0.341852
22.403451,0.062254,-0.041302,-0.341852
22.413492,0.060099,-0.045532,-0.349355
22.423532,0.063306,-0.046650,-0.340806
22.433542,0.040971,-0.029491,-0.340786
22.443582,0.047337,-0.035884,-0.348276
22.473642,0.049459,-0.045553,-0.337634
22.473642,0.049459,-0.045553,-0.337634
22.483682,0.022869,-0.024097,-0.339743
22.493692,0.041950,-0.057225,-0.348392
22.503732,0.029227,-0.042313,-0.331266
22.513772,0.045204,-0.040179,-0.341893
22.533822,0.035573,-0.059416,-0.332397
22.543832,0.035553,-0.061506,-0.342021
22.553872,0.027088,-0.044437,-0.332350
22.563882,0.051552,-0.059443,-0.337694
22.573922,0.035575,-0.054036,-0.340917
22.583963,0.038759,-0.062620,-0.334540
22.624063,0.048309,-0.070061,-0.348435
22.624063,0.048309,-0.070061,-0.348435
22.634073,0.043015,-0.061536,-0.340932
22.644113,0.044112,-0.051943,-0.337679
22.654123,0.044093,-0.057267,-0.340909
22.674203,0.050474,-0.062633,-0.339849
22.674203,0.050474,-0.062633,-0.339849
22.684212,0.055827,-0.053029,-0.341925
22.694253,0.074967,-0.069110,-0.341948
22.704263,0.051573,-0.053045,-0.335527
22.714303,0.067541,-0.053036,-0.348302
22.724313,0.090961,-0.070260,-0.335500
22.744394,0.086729,-0.056343,-0.339719
22.744394,0.086729,-0.056343,-0.339719
22.754403,0.085674,-0.056375,-0.332244
22.764444,0.083542,-0.054212,-0.336513
22.774453,0.094223,-0.047854,-0.333249
22.784494,0.086779,-0.044651,-0.327913
22.794504,0.098455,-0.058542,-0.334356
22.824594,0.092089,-0.051071,-0.328997
22.824594,0.092089,-0.051071,-0.328997
22.834634,0.102768,-0.042557,-0.329995
22.844644,0.086787,-0.040370,-0.330029
22.854684,0.094227,-0.047869,-0.330044
22.864694,0.083576,-0.042470,-0.335389
22.884744,0.091052,-0.041466,-0.326818
22.884744,0.091052,-0.041466,-0.326818
22.894783,0.082528,-0.038215,-0.331099
22.904794,0.081493,-0.030766,-0.324657
22.914834,0.096352,-0.050007,-0.331116
22.924875,0.092098,-0.050023,-0.324719
22.934884,0.087902,-0.025447,-0.324614
22.954934,0.088912,-0.045741,-0.324708
22.954934,0.088912,-0.045741,-0.324708
22.964975,0.088929,-0.040407,-0.323614
22.974984,0.092132,-0.040437,-0.319332
22.985025,0.093178,-0.042531,-0.328953
22.995065,0.088899,-0.055393,-0.316208
23.005075,0.096371,-0.043604,-0.330018
23.035165,0.077158,-0.050992,-0.335447
23.035165,0.077158,-0.050992,-0.335447
23.045175,0.067593,-0.046740,-0.324771
23.055215,0.063307,-0.049884,-0.334412
23.065225,0.064396,-0.044574,-0.329043
23.075265,0.050543,-0.043461,-0.329076
23.095315,0.067575,-0.050992,-0.329064
23.095315,0.067575,-0.050992,-0.329064
23.105356,0.060096,-0.053063,-0.337640
23.115365,0.062227,-0.061684,-0.322720
23.125406,0.061218,-0.040317,-0.323690
23.135415,0.063325,-0.046711,-0.327987
23.145456,0.062238,-0.055256,-0.326963
23.175546,0.055836,-0.058444,-0.325927
23.175546,0.055836,-0.058444,-0.325927
23.185556,0.039928,-0.036021,-0.314115
23.195596,0.058019,-0.039223,-0.326898
23.205606,0.050554,-0.054266,-0.302421
23.215646,0.050548,-0.043476,-0.325871
23.235696,0.045244,-0.043539,-0.308795
23.245736,0.059072,-0.045650,-0.323721
23.255746,0.064433,-0.040383,-0.311931
23.265786,0.050559,-0.044589,-0.316262
23.275844,0.064391,-0.052100,-0.318396
23.285885,0.054841,-0.040352,-0.311958
23.305935,0.062234,-0.059553,-0.321642
23.305935,0.062234,-0.059553,-0.321642
23.315944,0.050570,-0.042469,-0.313048
23.325985,0.039939,-0.027437,-0.322620
23.336025,0.059047,-0.056344,-0.320567
23.346035,0.057999,-0.051011,-0.318409
23.356075,0.047397,-0.029608,-0.320473
23.386135,0.068700,-0.038256,-0.312978
23.386135,0.068700,-0.038256,-0.312978
23.396175,0.068722,-0.029707,-0.314005
23.406215,0.070825,-0.042550,-0.309787
23.416225,0.079370,-0.036175,-0.308665
23.426265,0.080437,-0.032949,-0.313988
23.446315,0.076177,-0.031867,-0.313995
23.456325,0.079425,-0.019113,-0.303244
23.466365,0.075160,-0.023401,-0.296866
23.476375,0.072967,-0.039358,-0.308698
23.486416,0.070893,-0.026607,-0.293689
23.496456,0.083701,-0.017011,-0.298949
23.516506,0.070925,-0.015937,-0.291502
23.526516,0.075174,-0.015906,-0.301104
23.536556,0.075171,-0.022359,-0.291520
23.546566,0.061346,-0.010562,-0.292571
23.556606,0.066713,-0.001003,-0.285033
23.566646,0.077350,-0.006357,-0.289302
23.596706,0.075243,0.001110,-0.286068
23.606746,0.059239,-0.006323,-0.284011
23.616756,0.053923,-0.000961,-0.285068
23.626796,0.057132,0.003300,-0.285039
23.636806,0.054999,0.002234,-0.283982
23.656887,0.050745,0.005451,-0.283979
23.666897,0.059232,-0.009532,-0.282958
23.676937,0.044368,0.009724,-0.279703
23.686947,0.048635,0.009700,-0.277555
23.696987,0.043299,0.005430,-0.274385
23.706997,0.051799,-0.004209,-0.274408
23.737087,0.067795,-0.004291,-0.267954
23.747127,0.072086,-0.000084,-0.257241
23.757137,0.060377,0.005294,-0.257248
23.767177,0.074181,-0.011823,-0.260495
23.777187,0.080556,-0.021475,-0.256250
23.797237,0.060379,-0.002253,-0.242328
23.797237,0.060379,-0.002253,-0.242328
23.807277,0.074201,-0.009733,-0.250871
23.817318,0.060366,-0.007597,-0.241285
23.827327,0.076286,-0.028982,-0.246684
23.837368,0.071013,-0.010831,-0.242339
23.847377,0.061450,-0.005505,-0.232727
23.877468,0.049703,-0.011855,-0.237062
23.877468,0.049703,-0.011855,-0.237062
23.887478,0.049690,-0.012892,-0.243476
23.897518,0.042256,-0.009720,-0.231732
23.907558,0.039072,-0.001136,-0.238109
23.917568,0.047614,0.002020,-0.233798
23.937618,0.056116,-0.008702,-0.230620
23.937618,0.056116,-0.008702,-0.230620
23.947658,0.050773,-0.012951,-0.231723
23.957668,0.062584,0.010434,-0.216625
23.967708,0.054080,0.022240,-0.223002
23.977749,0.072053,-0.026909,-0.230662
23.987758,0.081681,-0.018437,-0.222050
24.007808,0.050864,0.009384,-0.212389
24.007808,0.050864,0.009384,-0.212389
24.017849,0.076363,-0.016299,-0.218850
24.027858,0.048762,0.015758,-0.203819
24.037899,0.072136,-0.007782,-0.210275
24.047908,0.047645,-0.001310,-0.207108
24.057949,0.041273,0.008332,-0.209216
24.077999,0.039141,0.004032,-0.201765
24.088039,0.042287,-0.011972,-0.207173
24.098049,0.031648,0.000928,-0.217824
24.108089,0.032782,0.015790,-0.199591
24.118099,0.049790,0.001872,-0.203882
24.128139,0.041264,0.000821,-0.201774
24.148189,0.042301,-0.006632,-0.207148
24.158230,0.025296,0.004047,-0.195394
24.168239,0.030639,0.011525,-0.199617
24.178280,0.028476,-0.000220,-0.198610
24.188289,0.029548,0.000834,-0.196466
24.198330,0.026338,-0.006656,-0.191169
24.228420,0.016736,-0.008746,-0.194410
24.238430,0.024193,-0.007682,-0.198657
24.248470,0.004038,0.014704,-0.176174
24.258480,0.010350,-0.005521,-0.194412
24.268520,0.005005,-0.012995,-0.191258
24.288574,0.025274,-0.006658,-0.190104
24.298614,0.000843,0.016860,-0.178310
24.308624,0.012531,0.006163,-0.182601
24.318664,0.012487,-0.010934,-0.180545
24.328674,0.015661,-0.019487,-0.180577
24.338714,0.021038,-0.001345,-0.181544
24.368774,0.023137,-0.016328,-0.176269
24.368774,0.023137,-0.016328,-0.176269
24.378815,0.032718,-0.021709,-0.174131
24.388855,0.009364,0.013619,-0.176165
24.398865,0.000824,0.002917,-0.165557
24.408905,0.028470,-0.012048,-0.181575
24.428955,0.017846,-0.008891,-0.164498
24.438965,0.024277,0.008211,-0.171876
24.449005,0.042368,-0.005767,-0.164415
24.459015,0.024233,-0.009964,-0.167690
24.469055,0.032755,-0.009977,-0.170871
24.479095,0.046651,-0.002612,-0.156911
24.499145,0.036025,0.010248,-0.159016
24.509155,0.041311,-0.010101,-0.150552
24.519195,0.047685,-0.008978,-0.166552
24.529205,0.025443,0.029434,-0.143999
24.539245,0.045617,0.006987,-0.153664
24.549286,0.025371,0.007038,-0.150515
24.579346,0.032853,0.006948,-0.136608
24.589386,0.036038,0.011285,-0.152602
24.599396,0.024324,0.003752,-0.132373
24.609436,0.028555,-0.001546,-0.144137
24.619446,0.039228,0.001603,-0.139820
24.639526,0.055203,0.000513,-0.146190
24.649536,0.033927,0.005841,-0.129132
24.659576,0.046698,0.001548,-0.133390
24.669586,0.055260,0.013257,-0.131175
24.679626,0.049939,0.013249,-0.125848
24.689636,0.047791,0.009000,-0.129079
24.709717,0.058450,0.005731,-0.122656
24.719726,0.046748,0.012162,-0.119453
24.729767,0.043521,0.002571,-0.121644
24.739776,0.049933,0.006807,-0.118401
24.749817,0.014806,0.026169,-0.123748
24.759827,0.039236,-0.003808,-0.124891
24.799957,0.017977,0.015469,-0.121653
24.799957,0.017977,0.015469,-0.121653
24.809967,0.026486,0.009034,-0.121660
24.820007,0.017952,0.008009,-0.124893
24.830017,0.036041,-0.005959,-0.119568
24.840057,0.024412,0.027170,-0.116239
24.850067,0.040380,0.020716,-0.117294
24.860107,0.028654,0.018608,-0.115200
24.870148,0.050968,-0.006027,-0.115255
24.880157,0.033953,0.011145,-0.121630
24.890198,0.038232,0.010003,-0.108805
24.900207,0.029689,0.007930,-0.116316
24.920257,0.026506,0.012202,-0.114168
24.930298,0.023292,0.002571,-0.107813
24.940307,0.009511,0.031465,-0.110919
24.950348,0.036074,0.001476,-0.110988
24.960388,0.019058,0.012186,-0.105643
24.970398,0.032888,0.011144,-0.120564
25.000488,0.023325,0.012162,-0.103495
25.000488,0.023325,0.012162,-0.103495
25.010498,0.013769,0.025003,-0.102392
25.020538,0.022297,0.026048,-0.103432
25.030548,0.027634,0.027084,-0.100208
25.040588,0.006318,0.027153,-0.100266
25.060638,0.011649,0.032516,-0.108772
25.060638,0.011649,0.032516,-0.108772
25.070679,-0.001132,0.028220,-0.094941
25.080688,0.016925,0.011120,-0.104586
25.090729,0.014811,0.014305,-0.099235
25.100738,-0.003218,0.046397,-0.098065
25.110779,0.018060,0.031366,-0.095941
25.130829,-0.001152,0.023974,-0.100302
25.140869,0.019077,0.013203,-0.094956
25.150879,-0.001140,0.027167,-0.098150
25.160919,-0.000066,0.026060,-0.090675
25.170929,0.016996,0.028131,-0.088482
25.180969,0.015848,-0.000690,-0.090758
25.211059,-0.005412,0.012129,-0.076869
25.211059,-0.005412,0.012129,-0.076869
25.221069,0.009485,0.005693,-0.081131
25.231109,0.005270,0.023867,-0.082125
25.241119,0.023305,-0.009318,-0.077959
25.251160,0.024327,-0.022111,-0.083358
25.271243,0.006355,0.023803,-0.069304
25.281283,0.036102,-0.009385,-0.072583
25.291293,0.025422,-0.016821,-0.073716
25.301333,0.015889,0.003491,-0.071510
25.311343,0.023381,0.011985,-0.066108
25.321383,0.030824,0.012016,-0.077838
25.341433,0.041397,-0.021144,-0.073692
25.351443,0.024417,0.009921,-0.082138
25.361483,0.010613,0.011955,-0.051188
25.371523,0.036028,-0.031771,-0.081235
25.381533,0.025428,-0.016841,-0.069443
25.391573,0.037202,-0.010573,-0.048017
25.411623,0.038285,-0.002013,-0.052246
25.421633,0.037161,-0.014753,-0.067265
25.431673,0.043525,-0.029755,-0.060909
25.441683,0.047816,-0.020163,-0.059783
25.451724,0.030847,0.007633,-0.054358
25.461764,0.044637,-0.018057,-0.051236
25.481814,0.016918,-0.017942,-0.056653
25.491824,0.032939,-0.006252,-0.055486
25.501864,0.026593,0.010851,-0.054354
25.511874,0.024456,0.004410,-0.045845
25.521914,0.018083,0.015135,-0.051153
25.531954,0.027608,-0.004073,-0.060831
25.562014,0.025542,0.012960,-0.047938
25.572054,0.017068,0.028981,-0.042544
25.582064,0.068093,-0.012774,-0.055419
25.592104,0.007415,0.004430,-0.038414
25.602114,0.029779,0.011954,-0.063954
25.622195,0.017006,0.008711,-0.046913
25.632205,0.009511,0.000227,-0.054452
25.642245,0.002086,0.008754,-0.045886
25.652255,0.023363,0.001270,-0.058681
25.662295,-0.022379,0.026994,-0.046936
25.672305,0.008405,-0.011492,-0.059851
25.702395,-0.019235,0.012073,-0.055543
25.712435,0.007364,-0.002950,-0.058745
25.722445,0.000964,-0.008299,-0.052379
25.732485,0.004153,-0.006128,-0.061974
25.742495,0.002052,-0.001910,-0.049141
25.752535,0.004135,-0.015765,-0.056678
25.762545,-0.003320,-0.012526,-0.058820
25.772585,0.002005,-0.017919,-0.051353
25.782626,0.003041,-0.025367,-0.057795
25.792635,-0.001186,-0.015773,-0.051352
25.802676,0.020108,-0.024390,-0.050266
25.812685,0.016910,-0.022224,-0.054537
25.832736,0.014795,-0.017960,-0.051318
25.832736,0.014795,-0.017960,-0.051318
25.852816,0.012686,-0.014795,-0.041695
25.862826,0.012642,-0.023273,-0.055622
25.872866,0.013719,-0.028697,-0.038554
25.882876,0.015871,-0.015843,-0.048101
25.902926,0.006249,-0.031876,-0.038589
25.922976,0.024387,-0.026611,-0.035310
25.933016,0.009506,-0.013762,-0.032085
25.943057,0.032901,-0.026598,-0.043832
25.953066,0.019065,-0.026614,-0.031051
25.963107,0.040321,-0.043729,-0.039619
25.973116,0.024373,-0.033029,-0.033203
25.983157,0.022322,-0.005271,-0.029873
25.993166,0.020162,-0.012714,-0.035255
25.993166,0.020162,-0.012714,-0.035255
26.003207,0.017967,-0.038358,-0.031110
26.013216,0.026510,-0.028743,-0.037450
26.023257,0.012765,0.007576,-0.029839
26.053347,0.020134,-0.022320,-0.036369
26.053347,0.020134,-0.022320,-0.036369
26.063357,0.029755,-0.017057,-0.026704
26.073397,0.022289,-0.013784,-0.036323
26.083407,0.015905,-0.011642,-0.033126
26.093447,0.020188,-0.006332,-0.029884
26.123538,0.021210,-0.018047,-0.037414
26.123538,0.021210,-0.018047,-0.037414
26.133547,0.011640,-0.010545,-0.036337
26.143588,0.007402,-0.007378,-0.025652
26.153597,0.011605,-0.023360,-0.036398
26.163638,0.012679,-0.023389,-0.031054
26.183688,0.008426,-0.019099,-0.032113
26.183688,0.008426,-0.019099,-0.032113
26.193728,-0.004359,-0.017994,-0.031075
26.203738,0.026518,-0.022306,-0.043829
26.213778,0.003104,-0.021258,-0.023593
26.223788,-0.003308,-0.023337,-0.031098
26.233828,0.002038,-0.015869,-0.033184
26.253878,-0.002231,-0.017991,-0.033206
26.253878,-0.002231,-0.017991,-0.033206
26.263918,0.014765,-0.040488,-0.030061
26.273942,-0.010735,-0.011571,-0.029994
26.283982,0.012685,-0.018024,-0.036369
26.293992,-0.011843,-0.028669,-0.026874
26.304032,0.001979,-0.035071,-0.037548
26.324083,-0.001175,-0.022271,-0.032155
26.324083,-0.001175,-0.022271,-0.032155
26.334092,0.000897,-0.042559,-0.034382
26.344133,-0.007530,-0.011607,-0.024645
26.354173,0.021204,-0.023412,-0.032099
26.364183,-0.005423,-0.021230,-0.023616
26.374223,0.012696,-0.020211,-0.025698
26.404283,-0.001104,0.000125,-0.025640
26.404283,-0.001104,0.000125,-0.025640
26.414323,0.024409,-0.023448,-0.026749
26.424363,-0.003282,-0.019111,-0.021464
26.434373,0.014843,-0.013805,-0.026730
26.444413,0.003130,-0.011646,-0.023547
26.464463,0.003113,-0.012669,-0.033166
26.464463,0.003113,-0.012669,-0.033166
26.474473,0.007409,-0.010633,-0.014985
26.484513,0.007383,-0.013781,-0.026750
26.494523,0.009520,-0.011652,-0.026734
26.504563,0.006312,-0.013762,-0.029958
26.514604,-0.010705,-0.008433,-0.016093
26.534654,0.001021,-0.007403,-0.016055
26.544664,-0.005377,-0.004138,-0.024603
26.554704,0.020140,-0.027726,-0.022508
26.564714,-0.012817,0.001206,-0.020326
26.574754,0.023337,-0.023424,-0.031024
26.584764,-0.005369,-0.005241,-0.017131
26.604844,0.016968,-0.017021,-0.025671
26.614854,0.005249,-0.020232,-0.016104
26.624894,-0.008582,-0.003029,-0.031016
26.634904,0.006319,-0.018095,-0.017160
26.644944,0.005206,-0.031944,-0.023637
26.654954,-0.012849,-0.005156,-0.029970
26.685044,-0.003321,-0.029760,-0.027924
26.695085,-0.010721,-0.011616,-0.020381
26.705094,-0.008625,-0.020126,-0.028961
26.715135,-0.010767,-0.025474,-0.025787
26.725145,-0.005436,-0.025497,-0.024705
26.745195,0.007344,-0.030893,-0.021490
26.755235,-0.013965,-0.027615,-0.022602
26.765275,0.009497,-0.020195,-0.026775
26.775285,-0.000064,-0.012724,-0.019288
26.785325,0.017965,-0.043738,-0.022590
26.795335,-0.006477,-0.018033,-0.021467
26.825425,0.007381,-0.019161,-0.018230
26.825425,0.007381,-0.019161,-0.018230
26.835466,0.015850,-0.038396,-0.021502
26.845475,-0.000085,-0.022351,-0.016129
26.855516,0.006341,-0.007390,-0.022450
26.865525,0.023323,-0.034154,-0.020393
26.895616,0.020145,-0.028819,-0.017172
26.905625,-0.003237,-0.002019,-0.022451
26.915666,0.018047,-0.012758,-0.024579
26.925706,0.002078,-0.013839,-0.010742
26.935716,0.006302,-0.020195,-0.024647
26.965806,0.009509,-0.017002,-0.024623
26.965806,0.009509,-0.017002,-0.024623
26.975816,0.003161,-0.007435,-0.010709
26.985856,0.004188,-0.017010,-0.019297
26.995866,0.011650,-0.017039,-0.018208
27.005906,0.006341,-0.014931,-0.008599
27.035997,-0.018160,-0.007351,-0.013972
27.046006,0.022268,-0.029873,-0.021444
27.056047,-0.010672,-0.000998,-0.007512
27.066056,0.002029,-0.024458,-0.023611
27.076097,-0.002229,-0.027693,-0.014024
27.096147,-0.012851,-0.010537,-0.021450
27.096147,-0.012851,-0.010537,-0.021450
27.106187,-0.009650,-0.011635,-0.017173
27.116197,-0.013948,-0.024436,-0.017246
27.126237,-0.004405,-0.038315,-0.024762
27.136247,-0.019232,-0.007327,-0.018247
27.146287,-0.001172,-0.028745,-0.018299
27.156297,-0.013946,-0.022290,-0.019372
27.166337,-0.011829,-0.027637,-0.019391
27.176377,-0.010750,-0.022296,-0.020431
27.186387,-0.002211,-0.015901,-0.023582
27.196427,-0.001154,-0.025571,-0.011875
27.206437,0.000938,-0.032993,-0.024722
27.216478,-0.001175,-0.029812,-0.018304
27.236528,0.005247,-0.022378,-0.013978
27.236528,0.005247,-0.022378,-0.013978
27.246568,0.011587,-0.041616,-0.015120
27.256578,-0.003250,-0.007364,-0.021408
27.266618,0.016977,-0.023514,-0.007542
27.276675,0.007362,-0.032027,-0.007609
27.286715,0.011623,-0.024494,-0.022516
27.306765,0.005251,-0.022393,-0.010774
27.316775,0.007303,-0.042615,-0.026887
27.326815,-0.018151,-0.006303,-0.009694
27.336855,0.006323,-0.014876,-0.020349
27.346865,0.011602,-0.037355,-0.012963
27.356905,-0.013983,-0.040486,-0.010912
27.376955,0.028740,-0.008596,-0.008507
27.386965,-0.008596,-0.021295,-0.007602
27.397005,0.022151,-0.067205,-0.031235
27.407046,0.015881,-0.029878,-0.016121
27.417056,-0.001054,0.008582,-0.007440
27.427096,0.005231,-0.023405,-0.022529
27.447146,0.008392,-0.038382,-0.019386
27.457156,-0.005370,-0.009548,-0.009674
27.467196,-0.003274,-0.019136,-0.016123
27.477206,0.004126,-0.039436,-0.019403
27.487246,-0.007543,-0.022336,-0.014013
27.497286,0.007325,-0.038373,-0.020457
27.517336,-0.002233,-0.030912,-0.010835
27.527346,-0.001196,-0.036210,-0.020471
27.537386,0.016933,-0.037377,-0.011880
27.547396,0.003093,-0.028763,-0.017219
27.557436,-0.015013,-0.027667,-0.010855
27.567446,0.010542,-0.034137,-0.015087
27.587527,-0.005434,-0.028736,-0.017242
27.597536,0.003069,-0.037307,-0.017259
27.607577,-0.008616,-0.026620,-0.010832
27.617587,0.005236,-0.025577,-0.015062
27.627627,0.008416,-0.031995,-0.015083
27.637637,-0.005420,-0.027703,-0.009760
27.667727,-0.003251,-0.013822,-0.010757
27.677767,0.013721,-0.038399,-0.019372
27.687777,-0.000127,-0.041609,-0.008743
27.697817,0.004178,-0.022364,-0.016117
27.707827,0.001034,-0.006365,-0.009641
27.737917,-0.001108,-0.008479,-0.012862
27.737917,-0.001108,-0.008479,-0.012862
27.747958,-0.000098,-0.023388,-0.022543
27.757967,-0.011829,-0.033022,-0.009803
27.768008,-0.016057,-0.013730,-0.021474
27.778017,0.008442,-0.021305,-0.017169
27.798068,-0.003289,-0.023398,-0.018279
27.808108,-0.007505,-0.008453,-0.013948
27.818148,0.013735,-0.035211,-0.016152
27.828158,-0.011768,-0.007362,-0.016091
27.838198,0.007392,-0.014889,-0.018210
27.848208,0.011628,-0.032051,-0.005461
27.868258,0.021315,-0.004376,0.007516
27.878298,0.056441,-0.020504,0.006468
27.888308,0.062792,-0.017154,-0.028749
27.898348,0.017111,0.015918,0.009737
27.908389,0.074531,-0.026935,-0.000990
27.918398,0.044667,-0.034309,-0.002175
27.938448,0.048947,-0.025759,-0.006396
27.948489,0.027782,0.013687,0.022574
27.958498,0.090480,-0.029022,-0.022320
27.968539,0.045758,-0.033315,0.012787
27.978548,0.013815,-0.016074,0.002099
27.988589,0.092727,0.001845,-0.001871
28.018679,0.081948,-0.046213,0.005349
28.018679,0.081948,-0.046213,0.005349
28.028689,0.049020,-0.006602,0.007582
28.038729,0.050023,-0.023642,-0.003178
28.048739,0.048943,-0.036519,0.010645
28.058779,0.061713,-0.030037,-0.013858
28.078829,0.044675,-0.037568,0.009560
28.088870,0.028707,-0.016031,-0.017088
28.098879,0.019097,-0.026715,-0.009688
28.108920,0.001981,-0.055544,0.000811
28.118929,0.033977,-0.047100,-0.000129
28.128970,-0.017043,0.019415,-0.028797
28.149020,-0.001201,-0.046965,-0.004498
28.149020,-0.001201,-0.046965,-0.004498
28.159060,-0.004403,-0.042632,-0.015169
28.169070,-0.029841,0.002248,-0.003276
28.179110,0.032912,-0.034175,-0.022503
28.189120,-0.067093,0.022675,-0.006487
28.199160,-0.026779,-0.040424,-0.015220
28.219210,-0.043702,0.003386,-0.008650
28.229250,-0.055423,0.007726,-0.015072
28.239260,-0.061884,-0.016820,-0.014137
28.249300,-0.051215,-0.010427,-0.018351
28.259310,-0.045859,-0.000833,-0.018290
28.269350,-0.045855,-0.000848,-0.015086
28.289413,-0.045866,0.000265,-0.024694
28.299422,-0.042707,-0.013628,-0.024751
28.309463,-0.057590,-0.005082,-0.015138
28.319503,-0.043733,-0.000825,-0.021489
28.329513,-0.050160,-0.016858,-0.014105
28.339553,-0.051228,-0.015772,-0.017308
28.359603,-0.028828,-0.009437,-0.017216
28.369613,-0.035278,-0.027556,-0.020524
28.379653,-0.035237,-0.011527,-0.022584
28.389693,-0.023562,-0.028647,-0.023701
28.399703,-0.027802,-0.025474,-0.014084
28.409743,-0.018210,-0.025506,-0.014058
28.429793,0.008497,-0.009629,-0.002158
28.439803,0.041545,-0.011918,0.007536
28.449843,0.031965,-0.014078,0.019250
28.459853,0.034033,-0.024658,-0.003227
28.469893,0.046828,-0.032256,0.013864
28.479934,0.024515,-0.006548,0.012855
28.499984,0.059616,-0.032292,0.012831
28.499984,0.059616,-0.032292,0.012831
28.509994,0.030902,-0.008699,0.011795
28.520034,0.045827,-0.011992,0.020366
28.530044,0.059676,-0.010939,0.014000
28.540084,0.063906,-0.023773,0.015019
28.550094,0.055378,-0.023740,0.013928
28.580184,0.059690,-0.009906,0.021482
28.580184,0.059690,-0.009906,0.021482
28.590224,0.063907,-0.021622,0.011825
28.600234,0.051186,0.002977,0.012974
28.610274,0.074526,-0.027998,-0.002063
28.620284,0.046880,-0.009799,0.007561
28.640365,0.028752,-0.004325,-0.008487
28.650374,0.026587,-0.018216,-0.005354
28.660415,0.020144,-0.030970,-0.013978
28.670424,0.015839,-0.041595,-0.022585
28.680465,0.011659,-0.017069,-0.011799
28.690475,-0.008523,0.010788,-0.017064
28.720565,-0.025711,-0.029662,-0.033326
28.720565,-0.025711,-0.029662,-0.033326
28.730605,-0.021429,-0.022195,-0.034347
28.740615,-0.049092,-0.005018,-0.034342
28.750655,-0.051311,-0.039205,-0.030237
28.760665,-0.043914,-0.053032,-0.047374
28.780715,-0.070479,-0.028423,-0.038785
28.790755,-0.067349,-0.051918,-0.041024
28.800796,-0.070513,-0.042322,-0.035646
28.810805,-0.066231,-0.038084,-0.031341
28.820846,-0.070509,-0.044488,-0.029247
28.830855,-0.069421,-0.037021,-0.028141
28.860946,-0.072592,-0.038169,-0.008927
28.860946,-0.072592,-0.038169,-0.008927
28.870955,-0.058746,-0.032799,-0.024886
28.880996,-0.048048,-0.026497,-0.009872
28.891036,-0.064054,-0.033925,-0.008883
28.901046,-0.056572,-0.024323,-0.012022
28.921096,-0.047005,-0.038278,-0.003516
28.931136,-0.035249,-0.026569,-0.003428
28.941146,-0.029859,-0.008467,0.004150
28.951186,-0.023463,-0.000951,-0.008615
28.961196,-0.017090,-0.015984,0.004150
28.971236,-0.001130,-0.025647,0.004148
28.991286,0.005303,-0.010707,0.002100
29.001327,0.001016,-0.018158,-0.000083
29.011336,0.016961,-0.027771,-0.010767
29.021377,-0.003181,0.003189,0.005347
29.031386,-0.002132,0.002163,-0.004269
29.041427,0.013771,-0.025630,-0.009697
29.061477,0.006397,0.002125,-0.002109
29.071517,0.011709,0.001086,-0.011713
29.081527,0.014852,-0.019221,-0.010732
29.091567,0.011669,-0.011714,-0.014978
29.101577,0.011728,0.002103,-0.001026
29.111617,0.029767,-0.019249,-0.014964
29.131667,0.029791,-0.010705,-0.014923
29.141707,0.013809,-0.011747,-0.009631
29.151717,0.019157,-0.006440,-0.006387
29.161757,0.005265,-0.013819,-0.017142
29.171767,-0.003195,0.003234,-0.004266
29.181808,-0.005327,0.010783,-0.018123
29.201858,-0.014942,0.000114,-0.013928
29.211898,-0.006437,-0.004155,-0.020334
29.221908,-0.019219,-0.007368,-0.009702
29.231948,0.008494,-0.006390,-0.009621
29.241958,-0.005290,0.017129,-0.005275
29.251998,-0.010718,-0.014856,-0.012918
29.262008,0.016940,-0.029861,-0.020390
29.272048,-0.016986,0.013847,0.019246
29.282083,-0.007450,0.009686,-0.010657
29.292123,0.020111,-0.039483,-0.020427
29.302163,-0.018130,-0.006369,0.004193
29.312173,-0.005289,0.013895,0.001119
29.322213,-0.000052,-0.013838,-0.009680
29.342263,-0.001126,-0.015965,-0.010761
29.352273,-0.028739,0.015055,-0.002145
29.362313,-0.019250,-0.016964,-0.012952
29.372354,-0.016085,-0.029799,-0.010868
29.382364,-0.030916,0.001204,-0.007557
29.392404,-0.016023,-0.009529,-0.006499
29.412454,-0.011786,-0.018076,-0.008664
29.422464,-0.026673,-0.004135,-0.010775
29.432504,-0.013936,-0.023399,-0.010831
29.442514,0.002048,-0.023441,-0.012924
29.452554,-0.030911,0.003340,-0.007547
29.462594,-0.009708,-0.035150,-0.013012
29.482644,-0.006464,-0.018073,-0.012922
29.492654,-0.014937,-0.002057,-0.006460
29.502694,-0.023506,-0.013741,-0.014017
29.512704,-0.011831,-0.033017,-0.010871
29.512704,-0.011831,-0.033017,-0.010871
29.532754,-0.016081,-0.027659,-0.011926
29.552835,-0.006475,-0.018038,-0.020399
29.552835,-0.006475,-0.018038,-0.020399
29.572885,-0.031015,-0.037262,-0.003467
29.582895,-0.002248,-0.031940,-0.019385
29.592935,-0.036248,-0.002003,-0.003314
29.602945,0.014855,-0.018153,-0.010727
29.623025,-0.017143,-0.029821,-0.005530
29.633035,0.011675,-0.008501,-0.017099
29.643075,0.010595,-0.022456,-0.001145
29.653085,-0.029892,-0.019136,0.001963
29.663125,0.026538,-0.033142,-0.010766
29.673135,-0.004314,-0.026755,0.014816
29.693185,0.008493,-0.012848,0.001031
29.693185,0.008493,-0.012848,0.001031
29.713266,-0.004362,-0.033067,-0.005510
29.713266,-0.004362,-0.033067,-0.005510
29.733316,0.006345,-0.017078,-0.001152
29.743325,-0.001163,-0.034160,-0.002301
29.763375,-0.003275,-0.028829,0.000923
29.763375,-0.003275,-0.028829,0.000923
29.773416,0.013733,-0.040591,-0.007632
29.783456,-0.003195,-0.003229,0.007453
29.793466,0.011641,-0.026706,-0.006503
29.803506,0.013716,-0.044847,-0.010856
29.813516,0.002039,-0.030952,-0.005482
29.843606,0.020122,-0.041669,-0.009755
29.853616,-0.000052,-0.013838,-0.009680
29.863656,0.020225,-0.008604,-0.001053
29.873697,-0.006421,-0.010669,0.002068
29.883706,0.011579,-0.045898,-0.013004
29.913797,0.000999,-0.012717,-0.021422
29.913797,0.000999,-0.012717,-0.021422
29.923806,-0.006501,-0.036269,-0.004462
29.933847,-0.012911,-0.037275,-0.013031
29.943856,-0.004318,-0.009506,-0.019285
29.953897,-0.027754,-0.013778,-0.003347
29.983987,-0.004333,-0.022387,-0.005459
29.983987,-0.004333,-0.022387,-0.005459
29.993997,-0.042697,-0.015815,-0.014080
30.004037,-0.021429,-0.038351,-0.005582
30.014047,-0.000090,-0.022335,-0.019334
30.024087,-0.018169,-0.014862,-0.006530
30.054178,0.006326,-0.031041,0.010553
30.054178,0.006326,-0.031041,0.010553
30.064187,-0.029883,-0.010547,-0.007610
30.074228,0.022242,-0.040563,-0.019358
30.084237,-0.016007,-0.017121,0.018034
30.094278,-0.038400,-0.007315,-0.007618
30.124368,-0.030989,-0.027651,-0.003421
30.124368,-0.030989,-0.027651,-0.003421
30.134378,-0.025653,-0.017996,-0.016179
30.144418,-0.038445,-0.022256,-0.009825
30.154428,-0.022493,-0.034045,-0.011974
30.164468,-0.026775,-0.040434,-0.013084
30.194558,-0.007557,-0.028754,-0.011907
30.194558,-0.007557,-0.028754,-0.011907
30.204568,-0.024629,-0.036179,-0.010921
30.214608,0.000961,-0.036298,-0.003374
30.224618,-0.000081,-0.020210,-0.017187
30.234658,-0.019239,-0.022384,0.004114
30.264718,-0.021366,-0.017007,-0.002276
30.264718,-0.021366,-0.017007,-0.002276
30.274759,-0.006471,-0.021282,-0.011869
30.284841,-0.014965,-0.014892,-0.002248
30.294851,0.002054,-0.022383,-0.010782
30.304891,0.003096,-0.036315,-0.001231
30.334951,-0.014943,-0.013885,0.010575
30.334951,-0.014943,-0.013885,0.010575
30.344991,0.003048,-0.049090,-0.009838
30.355001,-0.011774,-0.018117,-0.000118
30.365041,0.013841,-0.007541,0.004275
30.375081,-0.009626,-0.011711,-0.001150
30.395131,0.019079,-0.038508,-0.000129
30.395131,0.019079,-0.038508,-0.000129
30.405141,0.012776,-0.008615,0.006404
30.415181,0.014883,-0.019317,0.009564
30.425191,0.000958,-0.042751,0.006210
30.435231,0.007377,-0.029921,-0.001189
30.445272,-0.001100,-0.017124,0.008462
30.475332,-0.000080,-0.025600,-0.006531
30.485372,-0.018182,-0.019128,-0.007618
30.495382,-0.023485,-0.010578,-0.005456
30.505422,-0.001131,-0.020257,-0.006508
30.515432,-0.032022,-0.011593,-0.010825
30.535512,-0.009655,-0.018083,-0.008658
30.545522,-0.022433,-0.016999,-0.003347
30.555562,0.010588,-0.026743,0.002039
30.565572,-0.008590,-0.019160,-0.007592
30.575612,0.003128,-0.022412,-0.005438
30.585622,0.015894,-0.030997,-0.005444
30.615712,-0.011762,-0.018152,0.007359
30.615712,-0.011762,-0.018152,0.007359
30.625753,-0.025614,-0.006269,-0.011851
30.635762,-0.008618,-0.028766,-0.008706
30.645803,-0.022459,-0.028766,0.000870
30.655813,-0.014968,-0.010575,-0.011842
30.675863,-0.012873,-0.024470,-0.010833
30.685903,-0.017148,-0.034113,-0.001277
30.695943,-0.007506,-0.015990,-0.001165
30.705953,-0.024514,0.002236,-0.004330
30.715993,-0.017097,-0.020271,0.007334
30.726003,0.013731,-0.040586,-0.008700
30.756093,0.007412,-0.021413,0.006328
30.756093,0.007412,-0.021413,0.006328
30.766134,-0.012881,-0.036293,0.005134
30.776143,-0.004305,-0.018166,0.005243
30.786184,0.010626,-0.018245,0.011693
30.796193,-0.013893,-0.014916,0.002027
30.826284,0.003106,-0.030960,-0.004411
30.826284,0.003106,-0.030960,-0.004411
30.836293,-0.014954,-0.016006,0.007360
30.846334,0.010592,-0.022446,-0.003282
30.856374,-0.014969,-0.014882,-0.004385
30.866384,-0.000079,-0.034219,0.009452
30.896474,-0.018139,-0.008495,0.002046
30.896474,-0.018139,-0.008495,0.002046
30.906484,0.013774,-0.027796,-0.003298
30.916524,-0.017107,-0.021318,0.003057
30.926534,-0.020299,-0.014860,-0.005467
30.936574,-0.005374,-0.018153,0.003104
30.966665,-0.012840,-0.022420,0.007336
30.976674,-0.009659,-0.021302,-0.005469
30.986715,-0.008579,-0.021351,0.004148
30.996724,-0.029881,-0.012708,-0.002279
31.006765,-0.018231,-0.041595,0.000821
31.036855,-0.013944,-0.028759,-0.006584
31.036855,-0.013944,-0.028759,-0.006584
31.046865,-0.015032,-0.040533,-0.000233
31.056905,-0.032039,-0.022312,-0.002331
31.066915,-0.013939,-0.029852,-0.001248
31.076955,-0.019271,-0.030903,-0.001268
31.107045,-0.012910,-0.040509,-0.006637
31.107045,-0.012910,-0.040509,-0.006637
31.117055,-0.003284,-0.032033,0.000908
31.127095,-0.021340,-0.012781,0.007358
31.137105,-0.007541,-0.028805,-0.001225
31.147146,-0.004349,-0.041726,0.019018
31.177236,-0.003245,-0.025691,0.014824
31.187246,-0.007546,-0.027712,-0.006561
31.197286,0.004175,-0.038515,0.011580
31.207296,-0.012835,-0.018128,0.003083
31.217336,-0.006425,-0.013888,0.005258
31.237386,0.011608,-0.041682,-0.001233
31.237386,0.011608,-0.041682,-0.001233
31.247396,-0.013883,-0.010639,0.000980
31.257436,-0.007496,-0.018176,0.009507
31.267476,0.003129,-0.025646,0.000956
31.277496,-0.007544,-0.030951,0.000901
31.287536,-0.007514,-0.023506,0.007346
31.317596,-0.003248,-0.020295,0.003100
31.317596,-0.003248,-0.020295,0.003100
31.327636,0.005219,-0.040604,0.000891
31.337646,-0.012876,-0.032001,0.000881
31.347687,-0.004332,-0.023465,-0.003328
31.357727,0.011638,-0.034237,0.005211
31.387787,-0.028816,-0.014863,0.000918
31.397827,-0.004368,-0.034124,-0.007651
31.407837,-0.028828,-0.023441,0.008355
31.417877,-0.006531,-0.042636,-0.013038
31.427917,-0.022491,-0.041592,0.002946
31.447967,-0.002221,-0.032026,-0.001226
31.457977,-0.022482,-0.035159,-0.002365
31.468017,-0.025670,-0.033023,-0.000227
31.478027,-0.013931,-0.028799,0.001962
31.488067,-0.013930,-0.027726,0.000899
31.498077,-0.013916,-0.020230,-0.003339
31.518158,-0.019238,-0.020233,0.000919
31.528167,0.003135,-0.024588,0.003097
31.538208,-0.005369,-0.020324,0.010571
31.548218,-0.007543,-0.029878,-0.000162
31.558258,-0.001164,-0.037389,0.003025
31.568268,-0.008592,-0.026696,0.005191
31.598358,-0.006488,-0.029846,-0.007637
31.608398,0.004176,-0.035286,0.006254
31.618408,-0.021385,-0.025566,0.000888
31.628448,-0.018178,-0.022373,0.000912
31.638458,-0.006466,-0.026682,0.000924
31.668548,-0.008593,-0.027769,0.006254
31.668548,-0.008593,-0.027769,0.006254
31.678589,-0.010732,-0.028815,0.003039
31.688598,0.005203,-0.044860,-0.002334
31.698639,-0.005433,-0.039511,0.003003
31.708648,-0.011803,-0.029874,0.001962
31.728698,-0.003270,-0.028844,0.004127
31.738739,-0.005442,-0.039481,-0.003406
31.748749,-0.006477,-0.030959,0.001972
31.758789,-0.001189,-0.045928,0.001916
31.768829,-0.021404,-0.031969,-0.000210
31.778839,0.004164,-0.036323,-0.000160
31.808929,-0.021406,-0.034115,0.001916
31.808929,-0.021406,-0.034115,0.001916
31.818939,-0.001149,-0.030971,0.000919
31.828979,-0.031007,-0.032980,-0.005583
31.839020,-0.042715,-0.031915,0.002936
31.849029,0.023305,-0.049176,-0.005509
31.869079,-0.030975,-0.026618,0.004061
31.879120,0.007352,-0.037381,-0.004429
31.889129,0.006308,-0.036371,0.008391
31.899170,-0.010737,-0.028799,-0.000166
31.909179,-0.007544,-0.032029,0.003032
31.919220,-0.008576,-0.020283,0.004153
31.939270,-0.005441,-0.038408,-0.004470
31.949310,-0.010718,-0.022397,0.000933
31.959320,-0.006472,-0.029896,0.003045
31.969360,-0.033079,-0.017005,0.005169
31.979370,-0.000102,-0.031992,-0.009766
31.989410,0.015895,-0.039616,0.010539
32.019500,0.011623,-0.036343,-0.001208
32.029510,-0.021359,-0.018106,0.004128
32.039551,-0.017129,-0.025555,-0.004441
32.049560,-0.003299,-0.040601,0.006208
32.059601,-0.009660,-0.023453,-0.002274
32.079651,-0.019253,-0.027729,0.005157
32.089691,-0.012882,-0.031981,-0.003392
32.099701,-0.023540,-0.033025,-0.001290
32.109741,-0.021418,-0.037308,-0.000236
32.119751,-0.035208,-0.012696,-0.001226
32.129791,-0.008598,-0.025598,-0.001213
32.159881,-0.012872,-0.028782,-0.002308
32.169891,0.004176,-0.033130,0.001991
32.179931,-0.033106,-0.023382,-0.001270
32.189941,-0.009689,-0.040596,0.009395
32.199981,0.004169,-0.030953,-0.006544
32.220032,0.002033,-0.035243,-0.001229
32.230041,-0.007551,-0.035238,0.004085
32.240082,-0.023530,-0.033055,0.005120
32.250122,-0.012857,-0.023443,-0.002283
32.260132,-0.004337,-0.028835,0.003056
32.270172,-0.044809,-0.016946,0.000864
32.290241,-0.017111,-0.024537,0.006246
32.300251,-0.012879,-0.026606,-0.010844
32.310291,-0.034117,-0.004161,-0.000114
32.320301,-0.020267,-0.008498,0.004177
32.330341,-0.030954,-0.013757,-0.005492
32.340381,-0.008637,-0.038403,-0.003410
32.360431,-0.024524,-0.000963,-0.005413
32.370441,-0.018141,-0.013875,0.010566
32.380481,-0.006494,-0.025518,-0.019367
32.390491,-0.004333,-0.025616,-0.000133
32.400531,-0.022363,0.006475,0.001037
32.410572,0.020221,-0.009667,-0.002126
32.430622,-0.000103,-0.036299,-0.002308
32.440632,0.002111,-0.005326,-0.004292
32.450672,0.004243,-0.013953,0.011696
32.460682,-0.019201,-0.002038,-0.007540
32.470722,0.013753,-0.037422,-0.000139
32.480732,-0.010686,-0.013879,0.006314
32.510822,-0.010760,-0.031958,-0.009795
32.510822,-0.010760,-0.031958,-0.009795
32.520862,0.004206,-0.020299,-0.001153
32.530872,-0.028809,-0.010576,-0.002266
32.540912,-0.009677,-0.029861,-0.002304
32.550922,-0.017099,-0.012724,-0.007585
32.560962,-0.013937,-0.030935,0.001952
32.571003,-0.026687,-0.009474,-0.010801
32.581012,0.003122,-0.031011,0.006271
32.591053,-0.014965,-0.010585,-0.009705
32.601062,-0.003261,-0.022411,-0.001183
32.611103,0.003180,-0.007496,0.002110
32.621113,0.004187,-0.022395,-0.009708
32.641163,0.004231,-0.004220,-0.013895
32.651203,0.006359,-0.014987,0.003151
32.661243,-0.012836,-0.020279,0.006278
32.671253,0.014816,-0.032031,-0.011861
32.681293,-0.007494,-0.014952,0.005250
32.691303,-0.020268,-0.006342,-0.000086
32.711353,-0.018222,-0.034084,-0.006621
32.721393,-0.033111,-0.023367,-0.004475
32.731403,-0.006478,-0.024491,-0.010816
32.741443,-0.035181,0.000145,-0.006506
32.751484,-0.020330,-0.025534,-0.006586
32.761493,-0.005416,-0.027713,-0.007624
32.791584,-0.019194,0.001171,-0.008593
32.791584,-0.019194,0.001171,-0.008593
32.801593,-0.005430,-0.038443,0.003008
32.811634,-0.022509,-0.040458,-0.010936
32.821674,-0.000143,-0.046943,-0.009836
32.831684,-0.038355,0.004391,0.000983
32.851734,-0.015082,-0.054380,-0.007776
32.861774,-0.028873,-0.030841,-0.007703
32.871784,-0.022401,-0.005252,-0.003291
32.881824,-0.013942,-0.025535,-0.010841
32.891834,-0.007573,-0.041630,0.000850
32.901874,-0.008642,-0.034075,-0.015140
32.931965,0.008416,-0.037380,-0.005495
32.941974,-0.025603,-0.011689,0.005215
32.952015,0.025460,-0.042795,-0.001200
32.962024,-0.012791,-0.002109,0.003159
32.972065,0.026528,-0.038497,-0.007586
32.992115,0.018037,-0.029961,-0.000092
33.002155,-0.006394,-0.002135,0.004245
33.012165,0.005279,-0.017094,-0.002203
33.022205,-0.000026,-0.011767,0.004217
33.032215,0.010598,-0.020310,-0.003271
33.042255,-0.001119,-0.019219,-0.000094
33.062305,0.005288,-0.016046,0.002075
33.072345,-0.005389,-0.022414,0.000947
33.082355,-0.001133,-0.017018,-0.013970
33.092395,0.011697,-0.008571,-0.002145
33.102405,0.006308,-0.035293,0.006260
33.112446,-0.003244,-0.006306,-0.019267
33.132496,0.004173,-0.034198,0.001986
33.142505,-0.002213,-0.020203,-0.017193
33.152546,0.009594,-0.005421,0.010683
33.162586,0.009506,-0.019148,-0.022497
33.172596,-0.014963,-0.019210,0.007345
33.182636,0.004169,-0.026646,-0.014001
33.192646,-0.002212,-0.023437,-0.010799
33.202686,-0.035180,-0.003090,-0.000112
33.212696,-0.004402,-0.037247,-0.024757
33.222736,-0.020315,-0.021273,-0.004430
33.232776,-0.008607,-0.024494,-0.008685
33.242786,-0.039486,-0.010480,-0.015114
33.252826,0.005237,-0.035274,0.003052
33.272876,-0.001187,-0.038391,-0.010867
33.282941,0.006327,-0.034275,0.016947
33.282941,0.006327,-0.034275,0.016947
33.302991,0.008435,-0.032055,-0.002265
33.313032,-0.023509,-0.022350,-0.000171
33.323072,0.009453,-0.044834,-0.010868
33.343122,-0.004344,-0.027737,-0.003348
33.343122,-0.004344,-0.027737,-0.003348
33.363172,0.013760,-0.033136,-0.003323
33.363172,0.013760,-0.033136,-0.003323
33.383222,-0.029885,-0.009464,-0.010810
33.393262,-0.004302,-0.016020,0.003117
33.423322,0.007381,-0.022395,-0.011836
33.423322,0.007381,-0.022395,-0.011836
33.433362,-0.011786,-0.020232,-0.004401
33.443372,-0.003245,-0.015998,-0.002221
33.453412,-0.000076,-0.020225,-0.013983
33.463422,-0.016044,-0.021312,0.000923
33.493512,-0.014964,-0.021361,0.010540
33.493512,-0.014964,-0.021361,0.010540
33.503553,-0.009723,-0.032948,-0.026888
33.513563,0.004192,-0.023488,-0.004372
33.523603,-0.017120,-0.016966,-0.014014
33.533613,-0.013959,-0.033020,-0.008740
33.553663,-0.001186,-0.042704,-0.002342
33.563703,-0.022447,-0.019110,-0.008698
33.573743,0.003084,-0.025504,-0.028954
33.583753,-0.037312,-0.007390,0.007339
33.593793,0.011577,-0.040508,-0.023660
33.603803,0.009497,-0.033122,-0.003335
33.633893,-0.003220,-0.012845,0.008476
33.633893,-0.003220,-0.012845,0.008476
33.643934,0.007307,-0.049088,-0.013031
33.653943,-0.007498,-0.008474,-0.009675
33.663984,-0.010700,-0.015989,0.000963
33.673993,0.002018,-0.036271,-0.009780
33.694043,-0.005384,-0.018122,-0.003305
33.694043,-0.005384,-0.018122,-0.003305
33.704084,0.011644,-0.025638,-0.006498
33.714094,-0.021346,-0.012761,0.003085
33.724134,-0.000092,-0.021252,-0.022533
33.734174,-0.000098,-0.036315,0.000896
33.744184,-0.003273,-0.023449,-0.007597
33.774274,0.021188,-0.043829,-0.005490
33.774274,0.021188,-0.043829,-0.005490
33.784284,0.005261,-0.026731,0.003093
33.794324,0.015931,-0.013879,-0.011772
33.804365,-0.007498,-0.010630,-0.005412
33.814374,-0.012897,-0.044862,0.010434
33.844465,-0.014950,-0.004168,-0.011811
33.844465,-0.014950,-0.004168,-0.011811
33.854474,0.008367,-0.054462,-0.006644
33.864515,-0.026721,-0.020138,-0.014056
33.874524,0.008414,-0.022292,-0.034265
33.884565,-0.012855,-0.026682,0.005179
33.914655,-0.022409,-0.007383,-0.004370
33.914655,-0.022409,-0.007383,-0.004370
33.924665,0.018001,-0.034157,-0.016135
33.934705,-0.005427,-0.030912,-0.008707
33.944715,-0.002217,-0.023422,-0.014004
33.954755,0.004245,-0.003187,-0.006413
33.974805,-0.000041,-0.013873,-0.002202
33.984845,0.007362,-0.028798,-0.012934
33.994855,-0.011757,-0.007397,-0.008613
34.004896,-0.010656,-0.003205,0.007433
34.014905,0.014819,-0.027734,-0.017182
34.024946,-0.012774,0.006454,-0.001073
34.055036,-0.015970,0.008616,-0.004276
34.055036,-0.015970,0.008616,-0.004276
34.065046,0.003150,-0.009556,-0.013923
34.075086,-0.004304,-0.014937,-0.000083
34.085096,-0.010707,-0.013813,-0.007572
34.095136,-0.017126,-0.014794,-0.021482
34.125196,-0.018124,0.002230,-0.007517
