time_tick,gyr_X_value,gyr_Y_value,gyr_Z_value
0.008064,0.041478,-0.430599,0.016237
0.018074,0.172171,-0.588107,0.036149
0.038124,-0.051007,-0.748691,0.045455
0.058174,-0.368113,-0.554273,0.026270
0.068214,-0.442263,-0.374503,0.002347
0.088264,-0.276043,-0.001254,0.002436
0.108314,0.045600,0.257888,0.086803
0.118324,0.125739,0.318384,0.111880
0.138374,0.114971,0.273525,0.120183
0.158424,0.030410,0.151068,0.102279
0.168465,-0.034761,0.103303,0.084781
0.188515,-0.140563,0.023769,0.038180
0.198524,-0.156617,0.004644,0.028431
0.218574,-0.108615,0.004357,0.056336
0.238625,0.031199,0.048528,0.105001
0.258705,0.097415,0.086663,0.125660
0.268715,0.054824,0.096367,0.135202
0.288765,-0.155245,0.062916,0.125918
0.298805,-0.241677,0.038746,0.102064
0.318855,-0.264210,0.004827,0.063385
0.338905,-0.123504,0.017230,0.054219
0.358955,-0.022049,0.101354,0.036738
0.368965,-0.012352,0.143002,0.030552
0.389015,-0.050664,0.163412,0.031611
0.399055,-0.111481,0.144433,0.021739
0.419105,-0.207652,0.091672,-0.047142
0.439156,-0.202571,0.041811,-0.121070
0.459206,-0.167476,0.005231,-0.125269
0.469215,-0.065198,-0.015362,-0.094256
0.489265,-0.023736,-0.092727,-0.022937
0.499306,0.012356,-0.159173,0.001418
0.519356,0.090843,-0.305796,0.013759
0.539406,0.161998,-0.412947,0.040155
0.549446,0.217385,-0.438869,0.063686
0.569507,0.328217,-0.455354,0.086347
0.589557,0.402796,-0.438277,0.037496
0.599567,0.388894,-0.428388,-0.011634
0.619617,0.280984,-0.483216,-0.086966
0.639667,0.084647,-0.576643,-0.069791
0.649707,-0.012396,-0.611701,-0.042452
0.669757,-0.067741,-0.639767,0.058743
0.689807,0.081654,-0.646219,0.191584
0.699817,0.234160,-0.640560,0.245443
0.719867,0.484987,-0.554198,0.329865
0.739917,0.486566,-0.415791,0.419186
0.749958,0.385515,-0.367618,0.463999
0.770008,0.112661,-0.373164,0.468560
0.790058,-0.099886,-0.500303,0.399005
0.800067,-0.111843,-0.567392,0.366609
0.820117,0.044709,-0.595526,0.336998
0.840198,0.319892,-0.506592,0.312542
0.850208,0.400026,-0.440695,0.324826
0.870258,0.404692,-0.313798,0.361758
0.890308,0.286538,-0.246023,0.338252
0.900348,0.224664,-0.237021,0.283644
0.920398,0.126257,-0.259281,0.089921
0.940448,0.113082,-0.284951,-0.118539
0.950458,0.121538,-0.283678,-0.167647
0.970508,0.145067,-0.257081,-0.162115
0.990558,0.151765,-0.210664,-0.045442
1.000598,0.141303,-0.177858,0.025186
1.020648,0.095779,-0.112965,0.109756
1.040698,0.013693,-0.099711,0.073273
1.050708,-0.054616,-0.115337,0.036691
1.070758,-0.159330,-0.169092,-0.041832
1.090808,-0.198952,-0.200688,-0.108321
1.100849,-0.191507,-0.188814,-0.140290
1.120899,-0.107245,-0.131120,-0.202809
1.140949,0.017585,-0.070542,-0.225678
1.150989,0.044313,-0.049346,-0.209481
1.171039,0.049760,-0.042197,-0.144271
1.191089,0.009252,-0.077590,-0.084730
1.201099,-0.025943,-0.098946,-0.061428
1.221149,-0.138960,-0.138300,-0.018130
1.241199,-0.271257,-0.204218,0.010035
1.251239,-0.300143,-0.252252,0.024682
1.271289,-0.240606,-0.309072,0.029919
1.291339,-0.088111,-0.267827,0.011308
1.301349,-0.024060,-0.224199,0.001009
1.321399,0.023039,-0.142050,-0.013427
1.341449,-0.023770,-0.099084,-0.033649
1.351490,-0.055773,-0.095655,-0.059358
1.371540,-0.094323,-0.117577,-0.139685
1.381549,-0.095476,-0.125915,-0.182456
1.401599,-0.084811,-0.108736,-0.209050
1.421649,-0.077046,-0.038632,-0.133922
1.441730,-0.052140,0.049456,-0.034093
1.451740,-0.055188,0.088848,-0.006142
1.471790,-0.104139,0.134012,-0.038110
1.481830,-0.134051,0.135405,-0.086255
1.501880,-0.189748,0.106295,-0.215801
1.521930,-0.223085,0.050253,-0.311229
1.531940,-0.223177,0.027922,-0.331631
1.552006,-0.183803,-0.010793,-0.301795
1.572056,-0.104835,-0.044757,-0.174620
1.592106,0.024266,-0.066084,-0.044042
1.602146,0.080789,-0.073920,-0.006536
1.622196,0.163893,-0.082718,-0.009552
1.632206,0.168170,-0.066617,-0.029760
1.652256,0.128781,-0.021393,-0.080929
1.672306,0.054232,0.022837,-0.123655
1.692356,-0.018260,0.018821,-0.128147
1.702397,-0.041742,0.000692,-0.117616
1.722447,-0.040794,-0.065726,-0.075199
1.732487,-0.022721,-0.100110,-0.043265
1.752537,0.023157,-0.115493,0.016609
1.772587,0.069176,-0.071002,0.061812
1.782597,0.075675,-0.044420,0.082251
1.802647,0.013957,-0.017602,0.099299
1.822697,-0.050108,-0.051492,0.082939
1.832737,-0.073672,-0.091982,0.079477
1.852787,-0.078183,-0.188133,0.089692
1.872837,-0.041004,-0.262189,0.141787
1.882847,0.003761,-0.280651,0.176006
1.902897,0.096626,-0.255544,0.223383
1.922947,0.149053,-0.178798,0.218550
1.932987,0.160846,-0.149972,0.212310
1.953037,0.148142,-0.115731,0.207095
1.973088,0.114163,-0.083704,0.232790
1.993138,0.112180,-0.044310,0.259676
2.003147,0.105852,-0.022956,0.265101
2.023228,0.087820,0.018838,0.247089
2.033238,0.078225,0.030728,0.223618
2.053288,0.040833,0.036517,0.154108
2.073338,0.035337,0.019827,0.073898
2.083378,0.041676,0.021062,0.034398
2.103428,0.032013,0.028857,-0.026480
2.123478,0.019166,0.015076,-0.039400
2.143528,-0.004359,-0.019072,-0.028944
2.153538,-0.028902,-0.033979,-0.021605
2.173588,-0.067270,-0.036010,-0.017448
2.183628,-0.072581,-0.020971,-0.032346
2.203678,-0.042647,0.035734,-0.074724
2.223728,-0.007351,0.093394,-0.096786
2.233738,-0.007291,0.114748,-0.095617
2.253788,0.003415,0.127488,-0.086981
2.273838,0.015125,0.118876,-0.080580
2.283879,0.020447,0.115650,-0.079512
2.303929,0.048112,0.093083,-0.068861
2.323979,0.055475,0.048125,-0.051961
2.334019,0.046898,0.020305,-0.035025
2.354069,0.041444,-0.053607,0.015884
2.374119,0.029673,-0.097587,0.064781
2.384129,0.020087,-0.101883,0.076485
2.404179,0.004086,-0.103942,0.071090
2.424229,0.007250,-0.102768,0.046535
2.444279,-0.003400,-0.096295,0.040127
2.454319,-0.007649,-0.096327,0.049729
2.474369,-0.026738,-0.077179,0.078609
2.484379,-0.036269,-0.059028,0.086146
2.504429,-0.037278,-0.034427,0.078782
2.524479,-0.007500,-0.040785,0.047856
2.534519,-0.007538,-0.042819,0.026482
2.554571,-0.016107,-0.042655,-0.002383
2.574622,-0.011802,-0.026645,-0.003363
2.584631,-0.001106,-0.011718,-0.005400
2.604681,-0.009532,0.035389,-0.024428
2.624762,-0.064916,0.078539,-0.077787
2.634772,-0.092652,0.083017,-0.102412
2.654822,-0.115115,0.070422,-0.133512
2.674872,-0.071494,0.043592,-0.135655
2.684912,-0.038443,0.036986,-0.116367
2.704962,-0.017024,0.044129,-0.060726
2.714972,-0.026602,0.037651,-0.039419
2.735022,-0.054432,-0.021126,-0.012001
2.755072,-0.109015,-0.089171,-0.039179
2.765112,-0.124044,-0.125406,-0.044733
2.785162,-0.116666,-0.146713,-0.060836
2.805212,-0.070687,-0.091320,-0.062584
2.825262,-0.021463,-0.011314,-0.077024
2.835272,-0.014956,0.031398,-0.080009
2.855322,-0.024364,0.095479,-0.074391
2.865362,-0.031776,0.110429,-0.068999
2.885413,-0.034914,0.127486,-0.060382
2.905463,-0.105158,0.161873,-0.057208
2.915503,-0.159452,0.189861,-0.066840
2.935553,-0.235107,0.214831,-0.101114
2.955603,-0.346044,0.207949,-0.150591
2.975653,-0.415523,0.179729,-0.233169
2.985663,-0.443390,0.139380,-0.263347
3.005713,-0.480885,0.065784,-0.257389
3.015753,-0.514879,0.084930,-0.217869
3.035803,-0.650685,0.253620,-0.114898
3.055853,-0.727822,0.449971,-0.029793
3.065863,-0.674284,0.523339,0.001680
3.085913,-0.378478,0.682123,0.097252
3.105963,1.076198,0.541027,0.257632
3.126013,2.094143,0.425346,0.536566
3.136053,1.990140,0.465209,0.759724
3.156103,0.937767,0.496780,1.126566
3.166113,0.221471,0.430421,1.195843
3.186163,-1.314869,0.362750,0.974429
3.206213,-2.320331,0.523526,0.410530
3.216254,-2.588053,0.683399,-0.015671
3.236304,-3.006581,0.922994,-0.936494
3.256354,-1.706002,0.214665,-0.865748
3.266394,-0.680706,-0.199078,-0.119258
3.286444,-0.423833,0.986555,0.566444
3.306494,1.926160,1.097698,0.297866
3.316504,2.664088,0.903522,0.203916
3.336554,2.790627,-0.021008,0.274667
3.356604,1.411966,-1.232578,-0.030770
3.366644,0.514730,-1.882690,-0.152761
3.386694,-0.817902,-2.833420,-0.092576
3.406744,-0.955246,-2.952996,0.219466
3.416754,-0.508389,-2.998449,0.491812
3.436804,0.664165,-2.244745,0.651373
3.456854,0.756186,-0.082649,-0.203398
3.466894,0.356771,0.907501,-0.413461
3.486945,0.154201,1.914066,-0.164638
3.506995,1.130105,2.336191,0.237432
3.517035,1.726747,2.501728,0.505849
3.537085,2.341451,2.614600,0.832819
3.557175,2.094971,2.128456,0.822360
3.567185,1.674978,1.745616,0.765978
3.587235,0.677110,0.875341,0.747353
3.607285,0.227293,0.067184,0.767923
3.617325,0.276564,-0.202911,0.713371
3.637375,0.405368,-0.168362,0.546181
3.657425,0.761060,0.227653,0.345009
3.667435,0.993908,0.428893,0.313490
3.687485,1.267986,0.851751,0.363249
3.707535,0.920656,0.954834,0.257024
3.727585,0.221405,0.311341,-0.044917
3.737625,-0.207378,-0.140654,-0.150788
3.757675,-1.112181,-0.860426,-0.216514
3.767685,-1.435565,-1.045393,-0.176623
3.787735,-1.511728,-0.958631,0.046834
3.807785,-1.063544,-0.414746,0.129693
3.817826,-0.767719,-0.169843,0.081463
3.837876,-0.295123,0.037258,0.001497
3.857926,0.044118,-0.226470,-0.016973
3.867966,0.182928,-0.490429,-0.075521
3.888016,0.008987,-0.839131,-0.292362
3.908066,-0.717939,-0.739654,-0.505407
3.918076,-1.097952,-0.543878,-0.542919
3.938126,-1.239192,-0.042121,-0.407409
3.958176,-0.497384,0.229976,-0.188292
3.968216,-0.063458,0.229179,-0.090958
3.988266,0.397561,0.014809,-0.015923
4.008316,0.287834,-0.269236,-0.173529
4.018326,0.144587,-0.369745,-0.275880
4.038376,-0.104404,-0.513346,-0.452435
4.058426,-0.401231,-0.685196,-0.494660
4.068466,-0.526015,-0.752384,-0.429094
4.088517,-0.532028,-0.725564,-0.224955
4.108567,-0.200804,-0.473958,-0.134187
4.118576,-0.054340,-0.304581,-0.143663
4.138657,0.008106,-0.010545,-0.259603
4.158707,-0.000375,0.064743,-0.366092
4.168717,-0.127113,0.081022,-0.334319
4.188767,-0.160264,-0.044551,-0.180114
4.208817,-0.118895,-0.180569,-0.178298
4.218857,0.001325,-0.166574,-0.232587
4.238907,-0.013615,-0.078135,-0.405260
4.258957,-0.152090,-0.020842,-0.456646
4.268967,-0.238289,0.001647,-0.410845
4.289017,-0.247612,0.005135,-0.238872
4.299057,-0.187953,-0.053147,-0.150321
4.319107,-0.160478,-0.197913,-0.044108
4.339157,-0.261668,-0.188084,-0.020841
4.349167,-0.213542,-0.126285,-0.023620
4.369217,-0.067078,0.077564,-0.095958
4.389267,0.006645,0.239402,-0.268039
4.409317,0.114368,0.300208,-0.327273
4.419358,0.121957,0.346099,-0.325967
4.439408,0.095584,0.419650,-0.278691
4.449448,0.100867,0.405775,-0.284083
4.469498,0.155741,0.273754,-0.407400
4.499558,0.007245,-0.040134,-0.776761
4.499558,0.007245,-0.040134,-0.776761
4.519608,-0.318789,-0.325789,-0.897585
4.539658,-0.598385,-0.618906,-0.601713
4.559704,-0.696419,-0.570314,0.029560
4.569744,-0.661460,-0.423394,0.328383
4.589794,-0.417116,-0.131126,0.687224
4.599804,-0.305136,-0.112327,0.700441
4.619854,-0.283960,-0.457594,0.526884
4.649944,-0.614463,-1.185173,0.364433
4.649944,-0.614463,-1.185173,0.364433
4.669994,-0.377182,-1.098528,-0.053241
4.690044,0.074671,-0.371803,-0.695891
4.700054,0.356667,0.016327,-0.985966
4.720104,0.821935,0.392155,-1.284138
4.740185,0.910646,0.355528,-1.052264
4.750195,0.762693,0.325237,-0.869084
4.770245,0.260688,0.205190,-0.659533
4.800335,-0.499797,-0.436715,-0.578146
4.800335,-0.499797,-0.436715,-0.578146
4.820385,-0.596330,-0.650986,-0.594382
4.840435,-0.333480,-0.469738,-0.483840
4.850445,-0.184731,-0.312703,-0.369455
4.870495,-0.008799,0.015970,-0.209319
4.890545,0.073413,0.055101,-0.184337
4.900585,0.055097,-0.017464,-0.183663
4.920635,-0.042084,-0.145802,-0.078786
4.950695,-0.289432,-0.247069,0.050374
4.950695,-0.289432,-0.247069,0.050374
4.970745,-0.333410,-0.288050,-0.061036
4.990795,-0.414756,-0.404110,-0.078901
5.020886,-0.440037,-0.352189,0.024891
5.040936,-0.252186,-0.211463,-0.051903
5.050976,-0.130555,-0.137943,-0.099289
5.071026,0.054815,-0.136141,-0.155383
5.091076,0.077082,-0.143391,-0.218381
5.101086,0.097359,-0.123075,-0.237456
5.121136,0.150696,-0.076001,-0.291565
5.141186,0.171197,0.059945,-0.372050
5.151226,0.208622,0.114374,-0.389848
5.171276,0.316425,0.104909,-0.268887
5.191326,0.326323,0.157768,-0.161788
5.201336,0.337039,0.195253,-0.191491
5.221386,0.374109,0.180788,-0.319643
5.241436,0.320748,0.163950,-0.335893
5.251476,0.280199,0.128688,-0.304126
5.271526,0.190333,-0.009983,-0.277257
5.291576,0.034592,-0.072607,-0.252346
5.301586,-0.001801,-0.140938,-0.231406
5.321636,-0.071143,-0.171744,-0.218925
5.341717,-0.114380,-0.022254,-0.184154
5.351727,-0.091981,-0.013763,-0.188325
5.371777,-0.056975,-0.056442,-0.220476
5.401867,0.068667,-0.111401,-0.202230
5.401867,0.068667,-0.111401,-0.202230
5.421917,0.033238,-0.190182,-0.230474
5.441967,-0.026514,-0.214550,-0.230754
5.462017,0.004295,-0.241268,-0.247887
5.472027,0.025802,-0.166537,-0.257088
5.492077,0.113515,-0.045026,-0.266953
5.502117,0.148625,-0.051412,-0.295728
5.522167,0.048422,-0.023021,-0.358895
5.542217,-0.047653,-0.112709,-0.297628
5.552227,-0.085177,-0.199141,-0.287459
5.572303,-0.187462,-0.185983,-0.289816
5.592353,-0.114898,-0.146645,-0.302247
5.612403,-0.035952,-0.063122,-0.403114
5.622444,-0.033648,0.000957,-0.404941
5.632453,-0.036622,0.060584,-0.365144
5.652534,0.056302,0.084425,-0.276112
5.672584,0.090520,0.146437,-0.314180
5.702644,-0.007961,0.081323,-0.479265
5.702644,-0.007961,0.081323,-0.479265
5.722694,-0.185663,0.156398,-0.424922
5.732734,-0.276192,0.170494,-0.408014
5.752784,-0.466223,0.162425,-0.604061
5.782844,-0.533281,0.147287,-0.518861
5.782844,-0.533281,0.147287,-0.518861
5.802894,-0.437299,0.378244,-0.191698
5.822944,-0.280498,0.678804,0.054778
5.842994,-0.111479,0.512689,0.061937
5.853034,-0.201435,0.419543,-0.053051
5.873084,-0.517453,0.340418,-0.267941
5.883094,-0.633731,0.314203,-0.290819
5.903144,-0.778352,0.384732,-0.201155
5.933235,-0.368862,0.362227,-0.013193
5.933235,-0.368862,0.362227,-0.013193
5.953285,-0.463841,0.341379,-0.056282
5.973335,-0.549720,0.301595,-0.392127
5.993385,-0.790392,0.129537,-0.654250
6.003425,-0.871776,-0.011177,-0.653004
6.023475,-0.592500,-0.405242,-0.620982
6.033485,-0.411903,-0.615098,-0.631090
6.053535,-0.392093,-0.753807,-0.671215
6.083625,-0.506173,-0.316105,-0.784827
6.083625,-0.506173,-0.316105,-0.784827
6.103675,-0.423758,-0.145123,-0.863906
6.123725,-0.034471,-0.349621,-1.020825
6.153785,0.502858,-0.317425,-0.970050
6.153785,0.502858,-0.317425,-0.970050
6.173835,0.638238,-0.049857,-0.733403
6.183875,0.738830,0.053017,-0.650385
6.203925,0.816120,0.239529,-0.622584
6.223976,0.680683,0.330712,-0.841511
6.233985,0.689277,0.424186,-0.966026
6.254035,0.867636,0.662651,-1.153479
6.274116,0.952066,0.852307,-1.343558
6.304176,0.563108,0.637010,-1.620183
6.304176,0.563108,0.637010,-1.620183
6.324226,0.364934,0.126994,-1.358226
6.334266,0.422829,0.100950,-1.084727
6.354316,0.692485,0.295954,-0.726276
6.374366,0.465682,-0.038849,-0.684690
6.384376,0.179763,-0.175977,-0.624172
6.404426,0.499857,0.507761,-0.217337
6.424476,0.651356,0.429214,0.028400
6.444526,0.438915,0.385764,-0.123011
6.454566,0.111463,0.422093,-0.354478
6.474616,-1.096104,0.020251,-1.047647
6.484626,-1.024975,-0.013567,-1.171523
6.504676,-0.289977,0.046580,-0.843402
6.534767,0.384477,0.338942,-0.798494
6.534767,0.384477,0.338942,-0.798494
6.554817,-0.180788,-0.133963,-0.905910
6.564845,-0.382755,-0.359993,-0.847718
6.584926,-0.643705,-0.392002,-0.675540
6.614986,0.173106,0.049871,-0.501346
6.625026,0.089304,-0.001739,-0.145038
6.635036,-0.234281,-0.002007,0.132870
6.655086,-0.559511,0.092059,0.562906
6.675136,0.193149,0.644657,0.402027
6.685176,-0.250755,0.448500,0.406281
6.705226,-1.864490,-0.583890,0.086087
6.715236,-2.143574,-1.203663,-0.099212
6.735286,-1.188159,-0.599744,-0.185581
6.765376,-0.287775,-0.188482,-0.370221
6.765376,-0.287775,-0.188482,-0.370221
6.785426,0.164658,0.250946,-0.107316
6.805476,-0.392152,0.025857,-0.005234
6.825526,-0.430281,0.168349,0.602079
6.835536,-0.238521,0.317584,0.981463
6.855586,-0.539752,0.173124,0.796214
6.865627,-0.837163,-0.079822,0.514324
6.885677,-1.054491,-0.542473,0.710222
6.915767,-0.224159,-0.437832,1.274892
6.915767,-0.224159,-0.437832,1.274892
6.935817,0.314087,0.122522,0.975658
6.955867,0.265521,0.574728,0.460648
6.975917,-0.113725,0.375176,0.235399
6.985927,-0.180540,0.141813,0.171086
7.005977,-0.133353,-0.139197,0.167751
7.016017,-0.093838,-0.121267,0.188241
7.036067,0.130365,-0.003646,0.230009
7.056117,0.313969,0.102571,0.226746
7.066127,0.258741,0.189390,0.198162
7.086177,0.072559,0.288048,0.239775
7.106227,-0.141677,0.169207,0.449058
7.126277,-0.342611,-0.123508,0.606282
7.136318,-0.384552,-0.285921,0.652399
7.156368,-0.213489,-0.457154,0.611470
7.166377,-0.001464,-0.450084,0.552270
7.186427,0.319334,-0.442487,0.532896
7.216518,0.201077,-0.513345,0.692466
7.216518,0.201077,-0.513345,0.692466
7.236568,-0.035843,-0.653775,0.740285
7.256618,-0.062954,-0.842879,0.774566
7.266658,0.034992,-0.907491,0.820465
7.286708,0.236870,-0.809364,0.934717
7.306758,0.467768,-0.567758,0.950385
7.316768,0.568235,-0.449407,0.922381
7.336818,0.668771,-0.302192,0.888104
7.366908,0.549239,-0.391773,0.942897
7.366908,0.549239,-0.391773,0.942897
7.386958,0.514782,-0.531662,0.963505
7.407008,0.467602,-0.672800,1.031072
7.427058,0.498390,-0.760850,1.110857
7.437068,0.533537,-0.785663,1.139678
7.457118,0.584721,-0.775140,1.137733
7.467159,0.612478,-0.740904,1.105925
7.487209,0.730008,-0.594635,1.034304
7.517299,0.756444,-0.254879,0.985778
7.517299,0.756444,-0.254879,0.985778
7.537349,0.506347,-0.083946,0.918598
7.557396,0.149420,0.032109,0.785702
7.577446,0.030186,0.155946,0.651363
7.587456,0.087823,0.230899,0.570693
7.607506,0.320543,0.404535,0.504860
7.617546,0.333540,0.470624,0.522300
7.637596,0.358314,0.559127,0.534537
7.667656,0.227067,0.484636,0.568005
7.667656,0.227067,0.484636,0.568005
7.687706,-0.103826,0.291230,0.590745
7.707756,-0.293909,0.149751,0.602368
7.727806,-0.332258,0.131503,0.648109
7.737846,-0.349191,0.154876,0.685561
7.757897,-0.375566,0.215510,0.754140
7.767906,-0.363815,0.227235,0.751023
7.787956,-0.360661,0.253214,0.675312
7.818047,-0.314923,0.342761,0.452605
7.818047,-0.314923,0.342761,0.452605
7.838097,-0.270159,0.437407,0.281194
7.858147,-0.166896,0.449300,0.180056
7.878197,-0.051998,0.387107,0.154442
7.888237,-0.035029,0.346385,0.172456
7.908287,0.011738,0.287390,0.194739
7.918297,0.063961,0.286147,0.195945
7.938347,-0.007430,0.280938,0.217088
7.968437,-0.194583,0.113368,0.098274
7.968437,-0.194583,0.113368,0.098274
7.988487,-0.209082,-0.053669,-0.025401
8.008537,-0.068681,-0.106010,-0.119263
8.028587,0.171418,-0.008620,-0.101047
8.038597,0.221843,0.080650,-0.042802
8.048638,0.228582,0.162485,0.036651
8.068688,0.220363,0.194930,0.182059
8.088738,0.153061,0.114857,0.223155
8.118797,-0.172151,0.063584,0.222013
8.118797,-0.172151,0.063584,0.222013
8.138878,-0.289567,-0.010876,0.239496
8.148888,-0.311006,-0.059967,0.246682
8.168938,-0.253845,-0.184945,0.213134
8.199028,-0.049727,-0.304625,0.088151
8.199028,-0.049727,-0.304625,0.088151
8.219078,0.117617,-0.259972,0.016187
8.239128,0.242593,-0.128759,-0.038394
8.259178,0.399436,-0.040402,-0.085612
8.269188,0.509173,-0.048173,-0.098164
8.289238,0.690065,-0.138316,-0.130137
8.299278,0.712203,-0.211944,-0.158198
8.319328,0.601818,-0.400327,-0.219214
8.339378,0.462765,-0.537255,-0.301430
8.349388,0.430719,-0.547694,-0.330410
8.369438,0.446000,-0.402383,-0.355318
8.389488,0.505483,-0.096154,-0.337681
8.399529,0.551714,0.039233,-0.317685
8.419579,0.594838,0.205580,-0.293278
8.439629,0.458473,0.225230,-0.290358
8.449669,0.341112,0.181836,-0.293024
8.469719,0.131787,0.031988,-0.304993
8.489769,-0.032833,-0.128594,-0.336118
8.499779,-0.072447,-0.183913,-0.354649
8.519829,-0.009711,-0.240747,-0.348335
8.539879,0.079806,-0.250700,-0.337453
8.559970,0.093789,-0.190825,-0.361700
8.570010,0.049119,-0.150042,-0.373381
8.590060,-0.081861,-0.096114,-0.395920
8.600070,-0.112772,-0.090618,-0.407730
8.620120,-0.140473,-0.078710,-0.422705
8.640170,-0.146758,-0.033796,-0.431056
8.650210,-0.142460,-0.017761,-0.437377
8.670261,-0.081712,-0.007177,-0.458523
8.690311,0.050435,-0.006493,-0.467769
8.700320,0.109088,0.001824,-0.460090
8.720370,0.152929,0.048626,-0.450133
8.740420,0.106093,0.102453,-0.508760
8.750461,0.037877,0.117772,-0.539854
8.770511,-0.061336,0.114080,-0.594625
8.790561,-0.044345,0.073287,-0.561656
8.800601,-0.031483,0.071939,-0.511421
8.820651,0.008196,0.097968,-0.396889
8.840701,-0.088473,0.170523,-0.316697
8.860751,-0.235513,0.179493,-0.306379
8.870761,-0.286784,0.142312,-0.313106
8.890811,-0.254067,0.048435,-0.357256
8.900851,-0.199812,0.020568,-0.373261
8.920901,-0.088048,-0.021348,-0.393447
8.940951,0.030366,0.011312,-0.380147
8.950961,0.075188,0.037911,-0.389511
8.971011,0.129596,0.084966,-0.440412
8.991061,0.165738,0.080839,-0.495879
9.011111,0.143188,0.018967,-0.495166
9.021152,0.120747,-0.014167,-0.474020
9.041202,0.019490,-0.050441,-0.412515
9.051211,-0.058260,-0.047126,-0.382804
9.071292,-0.183918,-0.022277,-0.357397
9.091342,-0.207359,-0.004987,-0.384085
9.101352,-0.176510,-0.015671,-0.404347
9.121402,-0.091379,-0.043537,-0.441631
9.141452,-0.017879,-0.055498,-0.446825
9.151492,0.019457,-0.051413,-0.432816
9.171542,0.064296,-0.050723,-0.383551
9.191592,0.046167,-0.063555,-0.367638
9.201602,0.008796,-0.093382,-0.358269
9.221652,-0.113916,-0.150692,-0.350334
9.251742,-0.129992,-0.170824,-0.372906
9.251742,-0.129992,-0.170824,-0.372906
9.271793,-0.131851,-0.080120,-0.356459
9.281802,-0.110332,-0.017277,-0.335806
9.301852,-0.056663,0.105230,-0.307304
9.321902,-0.001100,0.150920,-0.296252
9.341952,-0.043785,0.115680,-0.267695
9.351993,-0.077998,0.070887,-0.257320
9.372043,-0.165745,-0.056980,-0.258167
9.392093,-0.236388,-0.169982,-0.252488
9.402133,-0.254586,-0.204142,-0.243086
9.422183,-0.198179,-0.242852,-0.226021
9.442233,-0.123507,-0.218527,-0.226768
9.452243,-0.099994,-0.194036,-0.227656
9.472293,-0.099861,-0.144906,-0.228491
9.492343,-0.152027,-0.094291,-0.281806
9.502383,-0.161656,-0.080139,-0.331972
9.522433,-0.174456,-0.036976,-0.417260
9.542483,-0.190302,0.034800,-0.453284
9.552493,-0.206230,0.063751,-0.467078
9.572544,-0.264878,0.083422,-0.521626
9.582585,-0.301210,0.066605,-0.553852
9.602635,-0.419777,0.005348,-0.617494
9.622685,-0.501055,-0.037678,-0.722607
9.632694,-0.509668,-0.028758,-0.796296
9.652744,-0.442473,0.067816,-0.938794
9.672795,-0.333389,0.227864,-0.982600
9.702885,-0.191267,0.295169,-0.859044
9.702885,-0.191267,0.295169,-0.859044
9.722935,-0.223394,0.166494,-0.727283
9.732975,-0.271509,0.070188,-0.654165
9.753025,-0.377270,-0.083803,-0.538751
9.773075,-0.392269,-0.131983,-0.502701
9.783085,-0.358162,-0.136406,-0.494082
9.803135,-0.262133,-0.112282,-0.466997
9.823185,-0.206582,-0.095638,-0.411217
9.833225,-0.208694,-0.103233,-0.384554
9.853275,-0.235361,-0.118158,-0.371880
9.873326,-0.285468,-0.102868,-0.409333
9.883335,-0.303592,-0.080170,-0.454141
9.903385,-0.278030,-0.038189,-0.541465
9.933476,-0.218424,-0.069373,-0.537175
9.933476,-0.218424,-0.069373,-0.537175
9.953526,-0.222832,-0.161540,-0.466053
9.973576,-0.222904,-0.233485,-0.383073
9.993626,-0.225960,-0.223150,-0.308257
10.003636,-0.236478,-0.182625,-0.288867
10.023716,-0.271349,-0.076816,-0.282054
10.033726,-0.285077,-0.026549,-0.288263
10.053776,-0.266813,0.023560,-0.282634
10.083866,-0.229350,0.031552,-0.191695
10.083866,-0.229350,0.031552,-0.191695
10.103916,-0.189838,0.006401,-0.094497
10.123966,-0.186613,-0.020626,-0.027319
10.144016,-0.217559,-0.030102,-0.034927
10.154026,-0.218725,-0.043784,-0.076655
10.174076,-0.250894,-0.060296,-0.176166
10.184117,-0.268035,-0.059963,-0.234963
10.204167,-0.256407,-0.019840,-0.371473
10.234226,-0.097520,0.112953,-0.557343
10.234226,-0.097520,0.112953,-0.557343
10.254276,-0.036594,0.180065,-0.563266
10.274326,-0.014161,0.176597,-0.522628
10.294377,-0.014225,0.118630,-0.459878
10.304417,-0.029173,0.084292,-0.415217
10.324467,-0.069697,0.018789,-0.312022
10.334507,-0.098466,-0.003761,-0.266275
10.354557,-0.136824,-0.015520,-0.237595
10.384617,-0.171937,0.036118,-0.292995
10.384617,-0.171937,0.036118,-0.292995
10.404667,-0.156968,0.093008,-0.364255
10.424717,-0.128100,0.150795,-0.408766
10.434757,-0.100369,0.164644,-0.420375
10.454807,-0.086480,0.175263,-0.417081
10.474857,-0.128048,0.145243,-0.363928
10.484867,-0.169654,0.112111,-0.330017
10.504917,-0.261526,0.020445,-0.305067
10.535008,-0.370509,-0.081753,-0.299442
10.535008,-0.370509,-0.081753,-0.299442
10.555058,-0.403603,-0.093322,-0.314544
10.565086,-0.402529,-0.082581,-0.328377
10.585137,-0.369435,-0.031154,-0.385725
10.605187,-0.305411,0.022257,-0.432297
10.615227,-0.279778,0.045704,-0.439593
10.635277,-0.233802,0.088176,-0.418969
10.655327,-0.182442,0.144463,-0.387582
10.675377,-0.166227,0.212632,-0.360510
10.685417,-0.176822,0.227547,-0.345513
10.705467,-0.226906,0.231991,-0.347767
10.715477,-0.262112,0.223598,-0.355382
10.735527,-0.320813,0.200349,-0.367404
10.755577,-0.305920,0.205777,-0.396179
10.765617,-0.277139,0.214288,-0.408878
10.785668,-0.241969,0.220642,-0.421569
10.805718,-0.227233,0.161933,-0.437830
10.825768,-0.214739,0.050797,-0.431911
10.835777,-0.207397,0.000519,-0.419310
10.855827,-0.187283,-0.054051,-0.410967
10.865868,-0.180939,-0.068993,-0.417430
10.885918,-0.220432,-0.078375,-0.438948
10.905968,-0.304594,-0.063135,-0.442313
10.915978,-0.345017,-0.037393,-0.438030
10.936028,-0.401158,0.080186,-0.421606
10.956078,-0.434804,0.227494,-0.383614
10.976158,-0.448295,0.337338,-0.341472
10.986168,-0.436473,0.364995,-0.326353
11.006218,-0.416178,0.360481,-0.288931
11.016258,-0.406632,0.333665,-0.270872
11.036308,-0.364204,0.251226,-0.256189
11.066368,-0.277174,0.115295,-0.252319
11.066368,-0.277174,0.115295,-0.252319
11.086418,-0.225077,0.082136,-0.276901
11.106468,-0.171934,0.059804,-0.333475
11.116509,-0.162445,0.037478,-0.361328
11.136559,-0.162698,-0.034969,-0.397991
11.156609,-0.154402,-0.124753,-0.387710
11.166618,-0.141655,-0.145126,-0.379226
11.186668,-0.110702,-0.138905,-0.360951
11.206719,-0.104126,-0.073792,-0.358488
11.216759,-0.115700,-0.020368,-0.356131
11.236809,-0.148358,0.111029,-0.341713
11.256859,-0.214051,0.226357,-0.294348
11.266869,-0.254415,0.256219,-0.257999
11.286949,-0.309745,0.242106,-0.171693
11.306999,-0.338546,0.205652,-0.121739
11.317009,-0.334298,0.197069,-0.116427
11.337059,-0.290623,0.191613,-0.121673
11.367149,-0.175530,0.190202,-0.127771
11.367149,-0.175530,0.190202,-0.127771
11.387199,-0.113825,0.151576,-0.132056
11.407250,-0.080009,0.050047,-0.139920
11.417259,-0.082328,-0.013986,-0.147707
11.437309,-0.102954,-0.134454,-0.178244
11.457359,-0.135194,-0.213220,-0.211820
11.467400,-0.139534,-0.232353,-0.227946
11.487450,-0.122480,-0.229180,-0.233225
11.517510,-0.132690,-0.046362,-0.267639
11.517510,-0.132690,-0.046362,-0.267639
11.537560,-0.202499,0.158999,-0.286089
11.557610,-0.278800,0.307599,-0.266369
11.577677,-0.337242,0.344929,-0.216148
11.587717,-0.357471,0.338466,-0.190597
11.607767,-0.376668,0.299790,-0.128877
11.617807,-0.361798,0.266509,-0.102288
11.637857,-0.313942,0.213903,-0.076767
11.657907,-0.252209,0.185957,-0.081002
11.667917,-0.216023,0.173074,-0.091645
11.687967,-0.167087,0.147351,-0.105518
11.708017,-0.175681,0.122816,-0.105658
11.718058,-0.200241,0.100424,-0.096218
11.738108,-0.255773,0.054632,-0.085906
11.758158,-0.279362,0.020686,-0.118178
11.768167,-0.286873,0.023024,-0.155575
11.788217,-0.287915,0.076813,-0.237576
11.808268,-0.255687,0.191165,-0.276470
11.818308,-0.234233,0.233747,-0.262322
11.838358,-0.204176,0.258825,-0.165981
11.858408,-0.206167,0.243304,-0.044284
11.878458,-0.232813,0.195997,0.040876
11.888468,-0.262672,0.179989,0.058877
11.908518,-0.290534,0.113771,0.078783
11.918558,-0.290608,0.077381,0.095702
11.938608,-0.286363,0.039721,0.152151
11.958658,-0.286233,0.044696,0.229086
11.968698,-0.291476,0.057367,0.263314
11.988748,-0.295595,0.076315,0.324281
11.998758,-0.297666,0.091212,0.337164
12.018808,-0.317760,0.141410,0.350165
12.048899,-0.339912,0.246322,0.312144
12.048899,-0.339912,0.246322,0.312144
12.068949,-0.325015,0.259276,0.272723
12.088999,-0.295359,0.205909,0.245847
12.099008,-0.274166,0.168528,0.231842
12.119059,-0.239184,0.119461,0.195387
12.139109,-0.198792,0.098128,0.162283
12.159159,-0.109387,0.062676,0.145271
12.169199,-0.062596,0.026229,0.142023
12.189249,-0.005309,-0.066832,0.134264
12.199259,-0.009682,-0.102019,0.125540
12.219309,-0.071743,-0.169983,0.086591
12.239389,-0.131766,-0.254895,0.016590
12.259439,-0.139516,-0.316431,-0.063839
12.269449,-0.122537,-0.323795,-0.099078
12.289499,-0.064967,-0.276639,-0.173471
12.299539,-0.044613,-0.224250,-0.199872
12.319590,-0.077223,-0.042377,-0.245035
12.339640,-0.113168,0.066690,-0.248891
12.349649,-0.134471,0.060255,-0.228684
12.369699,-0.191103,-0.008045,-0.200322
12.389749,-0.213624,-0.049541,-0.217672
12.409799,-0.184870,-0.049564,-0.232548
12.419840,-0.173099,-0.036827,-0.223909
12.439890,-0.130406,-0.030695,-0.194920
12.449900,-0.106972,-0.039344,-0.188487
12.469950,-0.052736,-0.086540,-0.182151
12.490000,-0.036769,-0.090839,-0.187469
12.500040,-0.043097,-0.063021,-0.193764
12.520090,-0.041856,0.009670,-0.209440
12.540140,-0.010839,0.041542,-0.195317
12.550180,-0.002280,0.045720,-0.181386
12.570263,0.007298,0.029574,-0.161140
12.590313,-0.019381,0.007148,-0.143160
12.600323,-0.047091,0.006160,-0.141105
12.620373,-0.086476,0.030906,-0.152847
12.640423,-0.050229,0.040450,-0.163384
12.650464,-0.009733,0.034949,-0.156889
12.670514,0.090504,0.031227,-0.116037
12.690564,0.138634,0.048847,-0.035705
12.710614,0.111043,0.053942,0.034745
12.720624,0.059866,0.034780,0.056945
12.740674,-0.024569,-0.064376,0.079744
12.750714,-0.076912,-0.115537,0.094312
12.770764,-0.172929,-0.160165,0.111995
12.790814,-0.233579,-0.129048,0.122657
12.800824,-0.236655,-0.082023,0.117530
12.820874,-0.212856,0.063285,0.087305
12.840924,-0.093116,0.218997,0.049916
12.850964,-0.013045,0.270013,0.047174
12.871014,0.089318,0.278148,0.063519
12.891064,0.085942,0.195781,0.094098
12.901104,0.051708,0.141362,0.107633
12.921155,-0.019984,0.027230,0.127191
12.941205,-0.101267,-0.081486,0.137134
12.951214,-0.137634,-0.125123,0.130418
12.971264,-0.185847,-0.197420,0.094692
12.991314,-0.169007,-0.239888,0.030444
13.011364,-0.065662,-0.239030,0.004029
13.021405,-0.015460,-0.202913,0.010748
13.041455,0.028771,-0.041009,0.070388
13.051465,0.037657,0.070929,0.106193
13.071515,0.046732,0.244751,0.154041
13.091565,0.052104,0.276913,0.124299
13.101605,0.062673,0.253460,0.108194
13.121655,0.108314,0.193583,0.092013
13.141705,0.135917,0.158287,0.084445
13.151715,0.129471,0.147699,0.069422
13.171765,0.041919,0.107544,0.039080
13.181805,-0.017909,0.061872,0.026949
13.201855,-0.128099,-0.070037,-0.007095
13.221905,-0.196789,-0.210489,-0.069905
13.241955,-0.260957,-0.281756,-0.086443
13.251996,-0.271617,-0.286024,-0.080083
13.272046,-0.279985,-0.229406,-0.077702
13.282055,-0.289445,-0.178089,-0.082827
13.302105,-0.317861,-0.045562,-0.084415
13.322155,-0.342140,0.039951,-0.084077
13.342206,-0.327246,0.014136,-0.055317
13.352246,-0.301727,-0.019149,-0.035107
13.372296,-0.242174,-0.087867,0.002120
13.402356,-0.182507,-0.132170,0.070441
13.402356,-0.182507,-0.132170,0.070441
13.422406,-0.180316,-0.117287,0.083336
13.432446,-0.176044,-0.118404,0.090820
13.452496,-0.157901,-0.109924,0.091978
13.472546,-0.091705,-0.087885,0.128585
13.482556,-0.074559,-0.073156,0.163953
13.502606,-0.118211,-0.076390,0.200136
13.522687,-0.173703,-0.132000,0.254198
13.542737,-0.151383,-0.198664,0.334061
13.552746,-0.106604,-0.205323,0.356586
13.572816,0.016130,-0.151313,0.368931
13.582857,0.105690,-0.120472,0.335141
13.602907,0.266599,-0.072437,0.230060
13.632967,0.313489,0.013604,0.070365
13.632967,0.313489,0.013604,0.070365
13.653017,0.227062,0.029276,-0.022735
13.673067,0.078704,0.007806,-0.123658
13.703157,-0.094396,-0.099033,-0.221850
13.703157,-0.094396,-0.099033,-0.221850
13.723207,-0.132875,-0.144880,-0.211491
13.733217,-0.142439,-0.143862,-0.194421
13.753267,-0.107175,-0.122724,-0.171791
13.783357,-0.069660,-0.076119,-0.115920
13.783357,-0.069660,-0.076119,-0.115920
13.803407,-0.045211,-0.095386,-0.123421
13.823457,-0.027252,-0.141260,-0.146021
13.833498,-0.025194,-0.165809,-0.150404
13.853548,-0.005053,-0.195690,-0.168649
13.873598,-0.025194,-0.152882,-0.173843
13.883607,-0.037836,-0.103756,-0.165100
13.903657,-0.049259,-0.003414,-0.147566
13.923707,-0.032030,0.064913,-0.154672
13.933748,-0.011767,0.065885,-0.148203
13.953798,-0.000071,0.020690,-0.084291
13.973848,-0.003288,-0.022325,-0.019343
13.983858,-0.001156,-0.037414,0.008366
14.003908,0.014879,-0.043003,0.050044
14.023958,0.028818,-0.025000,0.072600
14.033998,0.033125,-0.011151,0.076950
14.054048,0.045954,0.016690,0.052548
14.074098,0.028965,0.051015,0.032368
14.084108,0.011947,0.067120,0.025988
14.104158,-0.028502,0.086479,0.024899
14.124208,-0.079669,0.087749,0.017286
14.134248,-0.099933,0.085704,0.011880
14.154298,-0.137195,0.101854,0.009717
14.174348,-0.070843,0.162177,0.080687
14.184389,-0.023757,0.202353,0.134418
14.204439,0.084833,0.167913,0.116396
14.224489,0.136945,0.153020,0.068400
14.234498,0.129547,0.187314,0.048246
14.254549,0.100838,0.233515,0.008861
14.274599,0.061342,0.223065,-0.012662
14.294649,0.006842,0.166606,-0.005602
14.304689,-0.030567,0.120746,0.006896
14.324739,-0.117069,0.036473,0.045782
14.334749,-0.157618,0.007674,0.065830
14.354799,-0.177816,0.038811,0.044557
14.374849,-0.098919,0.083711,-0.019105
14.384889,-0.054106,0.114647,-0.042336
14.404939,0.020489,0.119825,-0.059196
14.414949,0.056666,0.102661,-0.067723
14.434999,0.111909,0.043801,-0.079599
14.465089,0.169189,-0.067552,-0.058604
14.465089,0.169189,-0.067552,-0.058604
14.485139,0.180821,-0.095305,-0.069385
14.505189,0.161681,-0.066298,-0.092801
14.515230,0.136167,-0.036262,-0.103412
14.535280,0.101090,0.010953,-0.126786
14.555330,0.096789,0.002468,-0.136452
14.565328,0.098879,-0.017875,-0.126929
14.585378,0.107274,-0.091812,-0.080254
14.615468,0.113659,-0.137045,-0.004607
14.615468,0.113659,-0.137045,-0.004607
14.635518,0.140427,-0.112746,0.032969
14.655568,0.169320,-0.093819,0.075867
14.675618,0.192967,-0.054671,0.137006
14.685628,0.220822,-0.023978,0.176752
14.705678,0.241435,0.065293,0.255211
14.715718,0.234143,0.112179,0.282118
14.735768,0.230089,0.169699,0.316562
14.765828,0.203393,0.172104,0.278044
14.765828,0.203393,0.172104,0.278044
14.785878,0.208553,0.143536,0.218103
14.805959,0.227578,0.117049,0.160347
14.815968,0.226482,0.117148,0.140048
14.836018,0.172160,0.155998,0.092012
14.856069,0.059152,0.175861,0.034110
14.866109,-0.000606,0.163361,0.008249
14.886159,-0.086076,0.097502,-0.008322
14.916219,-0.080962,-0.000936,0.027545
14.936269,-0.033075,-0.050409,0.068036
14.956319,0.036099,-0.108479,0.105340
14.966359,0.061658,-0.130042,0.130946
14.986409,0.119248,-0.148657,0.188700
15.006459,0.139618,-0.116787,0.210271
15.016469,0.130106,-0.085770,0.207187
15.036519,0.101431,-0.039680,0.191303
15.056569,0.084480,0.009606,0.169057
15.066609,0.073905,0.048157,0.154255
15.086659,0.059207,0.139060,0.137553
15.106709,0.024296,0.235298,0.135775
15.136800,-0.097104,0.282773,0.116436
15.136800,-0.097104,0.282773,0.116436
15.156850,-0.167656,0.216876,0.097770
15.166860,-0.182746,0.158214,0.092110
15.186910,-0.175588,0.051427,0.085215
15.206960,-0.127796,-0.007440,0.079728
15.217000,-0.099039,-0.012857,0.076577
15.237050,-0.037194,0.004084,0.065078
15.257100,0.017173,0.006028,0.068442
15.267110,0.059755,-0.013343,0.070604
15.287160,0.149188,-0.058578,0.089865
15.307210,0.191846,-0.080343,0.146495
15.317250,0.185497,-0.078313,0.173193
15.337300,0.148268,-0.062269,0.193462
15.357350,0.099183,-0.063001,0.155935
15.367360,0.068254,-0.043445,0.106804
15.387410,0.007495,0.007406,0.009670
15.407460,-0.041481,0.056958,-0.046847
15.427510,-0.066960,0.115969,-0.087230
15.437550,-0.075450,0.132041,-0.092518
15.457601,-0.090304,0.155574,-0.090312
15.467641,-0.090313,0.153448,-0.092458
15.487691,-0.057381,0.118135,-0.100012
15.507741,-0.006398,0.052815,-0.098043
15.517751,0.014821,0.012119,-0.088563
15.537801,0.034847,-0.071261,-0.085698
15.557851,0.061313,-0.139720,-0.080607
15.577938,0.088942,-0.174024,-0.072148
15.587978,0.094257,-0.172918,-0.083878
15.608028,0.108135,-0.149337,-0.111502
15.618038,0.112451,-0.123665,-0.123119
15.638088,0.135975,-0.097053,-0.120791
15.658138,0.168025,-0.088780,-0.085413
15.668178,0.186179,-0.088950,-0.061863
15.688228,0.191534,-0.097668,-0.028774
15.708278,0.170236,-0.111659,0.008488
15.718288,0.164932,-0.116030,0.033022
15.738338,0.133098,-0.074358,0.050222
15.758419,0.099136,0.001778,0.007760
15.768429,0.085308,0.026512,-0.018867
15.788479,0.075648,0.024605,-0.060563
15.808529,0.067057,0.001138,-0.060697
15.818569,0.053170,-0.011642,-0.058660
15.838619,0.016868,-0.040404,-0.049282
15.858669,-0.023721,-0.084159,-0.028237
15.868679,-0.047179,-0.091588,-0.021928
15.888729,-0.054573,-0.061611,-0.032489
15.898769,-0.033205,-0.042458,-0.032339
15.918819,0.002114,0.001127,-0.013876
15.938869,0.024669,0.041438,0.028038
15.958919,0.056616,0.026338,0.037669
15.968929,0.056565,-0.003661,0.057823
15.988979,0.028710,-0.084981,0.109703
15.999019,0.016923,-0.119213,0.129805
16.019069,-0.006532,-0.162203,0.203243
16.059169,0.115363,-0.081976,0.318259
16.069179,0.186942,-0.031044,0.338994
16.089260,0.331130,0.055851,0.383600
16.099270,0.314191,0.120180,0.342197
16.119320,0.364291,0.115685,0.355133
16.139370,0.295777,0.009144,0.348030
16.149410,0.243381,-0.036461,0.316691
16.169460,0.110794,-0.137009,0.215437
16.199520,-0.061550,-0.348438,0.101798
16.199520,-0.061550,-0.348438,0.101798
16.219570,-0.138200,-0.330155,0.127310
16.239620,-0.148442,-0.197865,0.163159
16.259670,-0.080033,-0.145930,0.199913
16.269710,-0.045928,-0.163274,0.230903
16.289760,0.003084,-0.195704,0.280023
16.299770,0.019047,-0.208606,0.287483
16.319820,0.001899,-0.223330,0.251047
16.339870,-0.048278,-0.216436,0.182575
16.349910,-0.082437,-0.223694,0.160014
16.369961,-0.140007,-0.212681,0.128929
16.390011,-0.168698,-0.178389,0.123671
16.410061,-0.138652,-0.112345,0.139021
16.420101,-0.122552,-0.078284,0.152045
16.440151,-0.095775,-0.037855,0.166197
16.450161,-0.071234,-0.028329,0.167379
16.470211,-0.046684,-0.020983,0.178163
16.490261,-0.015808,-0.057606,0.222940
16.500301,0.006529,-0.084468,0.242103
16.520351,0.034093,-0.149803,0.263234
16.540401,0.037147,-0.184908,0.232098
16.560451,0.009313,-0.170424,0.124201
16.570476,-0.003500,-0.149838,0.070852
16.590526,-0.031194,-0.094864,-0.017626
16.600566,-0.036497,-0.065846,-0.052755
16.620616,-0.042848,-0.031495,-0.085724
16.640666,-0.046043,-0.033645,-0.080402
16.650676,-0.050305,-0.032558,-0.081477
16.670726,-0.063039,-0.004685,-0.095267
16.690776,-0.091700,0.059676,-0.135634
16.710826,-0.102332,0.090868,-0.175040
16.720867,-0.116192,0.088772,-0.174020
16.740917,-0.159945,0.046000,-0.132683
16.750957,-0.188807,0.001124,-0.108406
16.771007,-0.249747,-0.085333,-0.076937
16.791057,-0.401374,-0.209976,-0.038422
16.801067,-0.375964,-0.295701,0.005039
16.821117,-0.219258,-0.301701,0.037491
16.841167,-0.147615,-0.204650,0.016784
16.851207,-0.081464,-0.173855,0.008566
16.871257,0.035898,-0.125075,0.001644
16.891307,0.096805,-0.055751,-0.020292
16.901317,0.129879,-0.027961,-0.047843
16.921367,0.154410,0.005298,-0.096756
16.951457,0.082823,-0.040224,-0.132420
16.951457,0.082823,-0.040224,-0.132420
16.971507,-0.004814,-0.115657,-0.155451
16.991558,-0.056186,-0.196683,-0.149567
17.001567,-0.060453,-0.206352,-0.134670
17.021617,-0.030458,-0.165999,-0.106623
17.041667,0.038007,-0.092695,-0.071904
17.051708,0.060521,-0.053331,-0.055632
17.071758,0.084171,0.013817,-0.043499
17.111858,0.050270,0.088683,-0.043238
17.121898,0.016212,0.103724,-0.038988
17.141948,-0.015713,0.126295,-0.047516
17.151958,-0.017817,0.142372,-0.058127
17.172008,-0.022036,0.158404,-0.058063
17.192058,-0.034804,0.154068,-0.035687
17.202098,-0.052920,0.145502,-0.018686
17.222148,-0.109380,0.112206,0.060048
17.232158,-0.132819,0.083169,0.118598
17.252208,-0.157177,0.049364,0.282876
17.272258,-0.094910,0.132836,0.429788
17.282299,-0.002994,0.201741,0.475233
17.302349,0.186148,0.330976,0.569302
17.332408,0.351906,0.445006,0.732668
17.342449,0.371125,0.441603,0.761546
17.352458,0.374276,0.423428,0.763606
17.372539,0.353746,0.365132,0.684225
17.382549,0.339714,0.337730,0.616759
17.402599,0.315932,0.322708,0.422208
17.422649,0.377344,0.297934,0.199004
17.432689,0.443202,0.267180,0.108242
17.452739,0.662308,0.141853,0.037753
17.482799,0.860142,0.008918,0.009897
17.492839,0.878338,0.015074,0.050569
17.502849,0.864519,0.018237,0.068705
17.522899,1.013392,-0.071660,0.006735
17.532939,1.158176,-0.073766,-0.098628
17.552989,1.268814,0.051479,-0.461991
17.573045,1.206677,0.147489,-0.848401
17.593096,0.775683,0.174968,-1.169927
17.613146,-0.002918,0.053267,-1.324341
17.623155,-0.357075,-0.065242,-1.315198
17.633196,-0.624894,-0.184057,-1.300477
17.653246,-0.884305,-0.331612,-1.311506
17.673296,-0.867376,-0.410988,-1.249878
17.703386,-0.594170,-0.481962,-0.881994
17.703386,-0.594170,-0.481962,-0.881994
17.723436,-0.271762,-0.496556,-0.500888
17.733446,-0.045564,-0.523932,-0.286749
17.753496,0.459101,-0.566070,0.148141
17.773546,0.852903,-0.542071,0.449511
17.783586,0.990520,-0.545084,0.540675
17.803636,1.032020,-0.607487,0.609929
17.823686,0.860981,-0.778743,0.581940
17.843736,0.799344,-1.097821,0.572783
17.853746,0.760650,-1.228085,0.593424
17.873796,0.661315,-1.338032,0.650313
17.883836,0.666735,-1.331875,0.699495
17.903887,0.510146,-0.978445,0.820374
17.923937,0.354103,-0.362832,0.828196
17.933946,0.334518,-0.106342,0.803718
17.953996,0.337607,0.277336,0.742517
17.974046,0.234722,0.512003,0.647204
17.994096,0.072602,0.549532,0.500588
18.004137,-0.026734,0.514992,0.420034
18.024187,-0.197947,0.367984,0.232996
18.034227,-0.267637,0.272572,0.131940
18.054277,-0.382434,0.088980,-0.035887
18.074327,-0.456540,-0.063029,-0.135087
18.084337,-0.469504,-0.117371,-0.152471
18.104387,-0.484463,-0.132284,-0.150446
18.124437,-0.403240,-0.052462,-0.147708
18.144487,-0.247334,0.067809,-0.168072
18.154527,-0.159817,0.116690,-0.176145
18.174577,-0.045575,0.186778,-0.170157
18.184587,-0.025292,0.200610,-0.173240
18.204637,-0.045663,0.171974,-0.201205
18.234728,-0.147204,0.103206,-0.269108
18.254778,-0.215543,0.089828,-0.329181
18.274828,-0.256100,0.076137,-0.342176
18.284837,-0.257189,0.065441,-0.337957
18.304888,-0.232620,0.051180,-0.274932
18.324938,-0.183465,0.031226,-0.154182
18.334978,-0.137572,0.023334,-0.097477
18.355028,-0.072306,0.061102,0.001157
18.375078,-0.028310,0.146192,0.044410
18.385118,-0.010094,0.179219,0.048890
18.405168,-0.009016,0.199643,0.020147
18.415178,-0.029337,0.182697,0.003988
18.435228,-0.089252,0.102832,-0.004033
18.455278,-0.133159,0.023922,0.000813
18.465318,-0.134285,-0.002813,0.009229
18.485368,-0.119439,-0.041403,0.029384
18.505419,-0.070457,-0.065117,0.042226
18.525469,-0.031022,-0.069558,0.050859
18.535478,-0.009685,-0.057844,0.043496
18.555528,0.006427,-0.000122,0.021381
18.565569,0.004361,0.031994,0.006573
18.585641,-0.005236,0.055737,-0.039275
18.605691,-0.042598,0.037734,-0.045872
18.615701,-0.066099,0.013202,-0.036440
18.635751,-0.056697,-0.070249,-0.011171
18.655801,-0.036573,-0.132391,0.017432
18.665841,-0.031275,-0.149546,0.028048
18.685891,-0.031170,-0.122949,0.049538
18.705941,-0.027654,-0.004399,0.045836
18.715981,-0.015801,0.046859,0.038634
18.736031,-0.001803,0.093762,0.047440
18.756081,0.026905,0.070184,0.045271
18.766091,0.034276,0.041361,0.037678
18.786141,0.033031,-0.017316,0.025647
18.806191,0.014787,-0.047022,-0.003386
18.826241,-0.001260,-0.047856,-0.041890
18.836282,-0.006630,-0.048785,-0.067547
18.856332,-0.012015,-0.047513,-0.107079
18.866341,-0.015215,-0.046419,-0.110288
18.886391,-0.005618,-0.040002,-0.118776
18.906441,0.005068,-0.035816,-0.108045
18.916482,0.010415,-0.035889,-0.096280
18.936532,-0.005539,-0.033787,-0.078155
18.956582,-0.032201,-0.055191,-0.050556
18.976632,-0.036434,-0.057429,-0.026009
18.986642,-0.025741,-0.047878,-0.020594
19.006722,-0.001120,-0.020292,0.000969
19.016732,0.006390,-0.005391,0.006401
19.036782,-0.004238,0.001011,0.014948
19.056832,-0.017047,-0.010735,0.023403
19.066872,-0.010698,-0.026770,0.022276
19.086922,-0.013947,-0.049216,0.028570
19.106972,-0.027789,-0.052446,0.043472
19.127023,-0.027742,-0.039666,0.051010
19.137032,-0.016031,-0.040742,0.044628
19.157082,0.013776,-0.061195,0.058500
19.167123,0.028686,-0.059052,0.046801
19.187173,0.042474,-0.061041,0.006238
19.207223,0.005149,-0.059771,-0.010951
19.217233,-0.021484,-0.050027,-0.020592
19.237283,-0.088488,0.011144,-0.037579
19.257333,-0.116050,0.076473,-0.057643
19.277383,-0.088284,0.098830,-0.061733
19.287423,-0.076551,0.097684,-0.053160
19.307473,-0.057392,0.072927,-0.025451
19.317513,-0.051034,0.051477,-0.010580
19.337563,-0.042601,0.004349,0.012721
19.357613,-0.027810,-0.043761,0.013603
19.367623,-0.017245,-0.073662,0.006013
19.387673,0.007132,-0.109935,-0.018660
19.407723,0.016637,-0.114000,-0.068859
19.417764,0.007043,-0.106422,-0.083805
19.437814,-0.019548,-0.086040,-0.084850
19.457864,-0.045044,-0.065752,-0.066665
19.467873,-0.049262,-0.054032,-0.058075
19.487923,-0.048071,-0.018885,-0.038678
19.507973,-0.042690,-0.008294,-0.023658
19.518014,-0.028830,-0.010510,-0.016153
19.538064,-0.016027,-0.024596,0.017999
19.558114,-0.025603,-0.025694,0.037180
19.568146,-0.033051,-0.026788,0.041442
19.588196,-0.034111,-0.021415,0.035055
19.608246,-0.020253,-0.015007,0.025510
19.618286,-0.012775,-0.007545,0.023430
19.638336,-0.010635,-0.001114,0.017057
19.658386,-0.024498,0.003263,0.004221
19.668426,-0.035153,0.010829,-0.007523
19.688476,-0.054337,0.027047,-0.036341
19.708526,-0.064961,0.051750,-0.058686
19.718536,-0.068131,0.063523,-0.061844
19.738586,-0.066017,0.056030,-0.059737
19.758636,-0.055445,0.017490,-0.047072
19.768677,-0.053380,-0.009236,-0.042920
19.788727,-0.062068,-0.065788,-0.047484
19.808777,-0.068623,-0.115889,-0.062694
19.818786,-0.066525,-0.123331,-0.071269
19.838837,-0.056840,-0.089183,-0.072149
19.848877,-0.047169,-0.062537,-0.067724
19.868927,-0.020395,-0.026405,-0.048251
19.888977,-0.029904,-0.021251,-0.002320
19.898987,-0.036279,-0.024526,0.016875
19.919037,-0.032043,-0.037380,0.022167
19.939087,-0.038471,-0.052335,0.027420
19.959137,-0.031036,-0.056586,0.017806
19.969177,-0.028919,-0.057625,0.010330
19.989227,-0.023592,-0.068408,0.028453
19.999267,-0.009739,-0.072755,0.034880
20.019317,0.005216,-0.070754,0.053090
20.049377,0.009562,-0.037636,0.047918
20.049377,0.009562,-0.037636,0.047918
20.069427,-0.001066,-0.018308,0.033025
20.089477,-0.013852,0.000035,0.002098
20.099518,-0.023445,0.009763,-0.016042
20.119568,-0.045819,0.028122,-0.043790
20.139618,-0.063873,0.059217,-0.057580
20.149628,-0.064894,0.077390,-0.060701
20.169678,-0.052082,0.084819,-0.059563
20.199768,-0.025547,0.039839,-0.051156
20.199768,-0.025547,0.039839,-0.051156
20.219818,-0.021362,0.013142,-0.054476
20.239868,-0.011783,0.007767,-0.053406
20.249878,-0.003277,0.000263,-0.053418
20.269928,0.011598,-0.025491,-0.037476
20.290008,0.010463,-0.051123,-0.036532
20.300018,-0.007636,-0.046818,-0.031221
20.320068,-0.014003,-0.029650,-0.043976
20.350159,-0.035259,-0.007149,-0.044996
20.350159,-0.035259,-0.007149,-0.044996
20.370209,-0.073505,0.021673,-0.016124
20.390259,-0.089348,0.052508,0.023502
20.410309,-0.080748,0.061940,0.055617
20.420318,-0.066907,0.052248,0.063087
20.440369,-0.039301,0.010478,0.069375
20.450409,-0.036161,-0.011974,0.072482
20.470459,-0.014938,-0.040831,0.062790
20.490509,-0.010691,-0.041873,0.054251
20.500519,-0.008563,-0.040791,0.049989
20.520569,0.006375,-0.023657,0.029816
20.540619,-0.004255,0.007530,-0.008522
20.550659,-0.021319,0.018391,-0.035223
20.570739,-0.068284,0.017688,-0.080221
20.590789,-0.088619,-0.005675,-0.094275
20.600799,-0.090747,-0.006756,-0.090013
20.620879,-0.071518,0.004888,-0.081359
20.640930,-0.077887,0.015598,-0.083462
20.650939,-0.090688,0.010290,-0.081386
20.670989,-0.066148,0.005817,-0.055702
20.691039,0.004194,-0.006259,-0.034201
20.711089,0.054189,-0.061048,-0.000139
20.721130,0.050928,-0.089923,0.010398
20.741180,0.007214,-0.092959,0.004921
20.751190,-0.004493,-0.077894,-0.011063
20.771240,-0.032123,-0.034971,-0.035505
20.791290,-0.043768,-0.007177,-0.033270
20.801330,-0.046911,0.007744,-0.024662
20.821380,-0.022345,0.019346,-0.010652
20.841430,-0.022334,0.015003,0.004282
20.861480,-0.042563,0.011769,0.024507
20.871490,-0.035110,0.011770,0.019186
20.891540,-0.043679,0.002237,0.008436
20.901580,-0.052260,-0.014797,0.002990
20.921630,-0.082228,-0.056313,-0.004767
20.941680,-0.118508,-0.077605,0.005715
20.951721,-0.115280,-0.071248,0.014299
20.971771,-0.071443,-0.026588,0.025314
20.991821,-0.028634,0.030881,0.038523
21.011871,0.001250,0.056506,0.019499
21.021880,-0.001982,0.053393,0.002384
21.041931,-0.057489,0.032301,-0.016029
21.051971,-0.085260,0.016422,-0.026863
21.072021,-0.075823,-0.025126,-0.054807
21.092071,-0.068386,-0.046620,-0.031388
21.102081,-0.043870,-0.051017,-0.021727
21.122131,0.038130,-0.067232,-0.036532
21.142181,0.033833,-0.067112,-0.058976
21.152221,0.019932,-0.077696,-0.069746
21.172271,-0.016426,-0.115973,-0.080710
21.192321,-0.053744,-0.134118,-0.057398
21.202331,-0.049453,-0.127754,-0.050947
21.222381,-0.004612,-0.088290,-0.070932
21.252471,-0.038480,-0.014604,-0.047177
21.252471,-0.038480,-0.014604,-0.047177
21.272521,-0.075620,0.029166,-0.018231
21.282562,-0.101119,0.044079,0.007407
21.302612,-0.099923,0.063050,0.059842
21.322662,-0.042335,0.065986,0.077107
21.342712,0.017260,0.027296,0.087770
21.352722,0.027844,0.009182,0.071691
21.372772,-0.010698,-0.033233,0.033996
21.402862,-0.125974,-0.085102,0.015272
21.402862,-0.125974,-0.085102,0.015272
21.422912,-0.131295,-0.065720,-0.014561
21.432922,-0.128050,-0.040029,-0.029385
21.452972,-0.146031,0.024227,-0.054768
21.483062,-0.222619,0.110178,-0.111188
21.503112,-0.307874,0.100733,-0.087968
21.523162,-0.343041,0.065287,-0.020935
21.533172,-0.316436,0.037318,0.003575
21.553222,-0.236596,-0.016500,0.037724
21.573266,-0.165322,-0.063706,0.034493
21.583306,-0.149400,-0.082940,0.025900
21.603356,-0.163335,-0.097725,0.000154
21.623406,-0.174057,-0.101795,-0.035145
21.633447,-0.185785,-0.094205,-0.051165
21.653497,-0.188983,-0.083420,-0.071419
21.673547,-0.172990,-0.069487,-0.092673
21.683557,-0.158072,-0.063062,-0.106488
21.703607,-0.154872,-0.046922,-0.134177
21.723657,-0.184660,-0.022222,-0.142688
21.733697,-0.192085,-0.010461,-0.140516
21.753747,-0.165360,0.003204,-0.112604
21.773797,-0.141832,0.010411,-0.071913
21.783807,-0.140717,0.017792,-0.052647
21.803857,-0.076755,0.019695,-0.047120
21.823907,-0.029896,-0.010506,-0.016156
21.843957,-0.019315,-0.060926,0.024227
21.853997,-0.012993,-0.088723,0.026250
21.874047,-0.007760,-0.123982,0.026097
21.884057,-0.023737,-0.119653,0.025005
21.904107,-0.050288,-0.073545,0.003786
21.924188,-0.086405,-0.023179,-0.007826
21.934197,-0.102344,-0.004967,-0.008852
21.954248,-0.098066,0.001437,-0.010946
21.974298,-0.081062,-0.029705,0.013522
21.984338,-0.073629,-0.046876,0.026280
22.004388,-0.026822,-0.084452,0.035846
22.024438,-0.009827,-0.108022,0.040054
22.034448,-0.011979,-0.115490,0.040013
22.054498,-0.008872,-0.128144,0.003642
22.074548,-0.029207,-0.129961,-0.049833
22.084588,-0.067547,-0.110538,-0.065871
22.104638,-0.154795,-0.035317,-0.104212
22.124688,-0.186610,0.038611,-0.132792
22.144738,-0.184345,0.086656,-0.131490
22.154748,-0.174699,0.100457,-0.120716
22.174798,-0.134217,0.085303,-0.105721
22.184838,-0.121466,0.060608,-0.086574
22.204888,-0.153452,0.017661,-0.016364
22.224938,-0.150287,-0.011330,0.014486
22.234948,-0.149214,-0.015666,0.027287
22.255029,-0.127868,-0.006134,0.029528
22.265039,-0.092722,-0.002938,0.007207
22.285089,-0.085277,0.008937,-0.024762
22.315179,-0.091849,-0.047572,-0.040003
22.315179,-0.091849,-0.047572,-0.040003
22.335229,-0.120707,-0.087078,-0.022110
22.355279,-0.131375,-0.094554,-0.014697
22.375329,-0.105766,-0.076416,-0.028427
22.385339,-0.090824,-0.063604,-0.037939
22.405389,-0.051386,-0.054050,-0.052740
22.415429,-0.048193,-0.054045,-0.055936
22.435479,-0.041819,-0.063698,-0.051691
22.465539,-0.048258,-0.091544,-0.030476
22.465539,-0.048258,-0.091544,-0.030476
22.485589,-0.029033,-0.079885,-0.025027
22.505639,0.014696,-0.065045,-0.031245
22.525689,0.032847,-0.045816,-0.044991
22.535729,0.022252,-0.022282,-0.045977
22.555779,0.004267,0.027980,-0.047925
22.565820,0.003272,0.047150,-0.036087
22.585885,0.043951,0.092773,-0.000508
22.615945,0.174181,0.148799,0.032164
22.615945,0.174181,0.148799,0.032164
22.635995,0.238098,0.140073,0.026958
22.656045,0.220888,0.092153,0.009592
22.666085,0.201567,0.048480,-0.001350
22.686135,0.116007,-0.049406,-0.020209
22.706185,0.041216,-0.116443,-0.020733
22.716195,0.011380,-0.113132,-0.022936
22.736245,0.002961,-0.057431,-0.052606
22.756295,0.033919,-0.021065,-0.085463
22.766335,0.033919,-0.019986,-0.087594
22.786385,0.015782,-0.037106,-0.068498
22.806435,0.001942,-0.039262,-0.054659
22.826485,-0.017143,-0.008276,-0.044951
22.836495,-0.006457,0.004525,-0.049134
22.856545,0.022330,0.014094,-0.059692
22.866586,0.036156,0.004447,-0.061835
22.886636,0.045669,-0.019033,-0.071534
22.906686,0.019017,-0.028618,-0.058835
22.916726,0.008388,-0.028675,-0.039636
22.936776,0.029757,-0.028911,-0.004327
22.956826,0.080905,-0.046280,0.020301
22.976876,0.097918,-0.060214,0.019214
22.986886,0.093628,-0.060114,0.001043
23.006936,0.043530,-0.045931,-0.027871
23.016976,0.012623,-0.041524,-0.035413
23.037026,-0.008678,-0.031808,-0.042903
23.057076,-0.001215,-0.030764,-0.042877
23.067086,0.004125,-0.029739,-0.037517
23.087136,0.006255,-0.035126,-0.028991
23.107186,0.004096,-0.052266,-0.016259
23.117226,-0.000168,-0.056560,-0.008814
23.137276,-0.009699,-0.039487,0.000855
23.157326,-0.017095,-0.005198,-0.018231
23.167336,-0.028783,0.006577,-0.016072
23.187386,-0.042602,0.016203,-0.009655
23.207436,-0.038344,0.017282,-0.014979
23.217477,-0.050048,0.019411,-0.005388
23.237527,-0.058532,0.024692,0.012774
23.257577,-0.015920,-0.001239,0.046952
23.267617,0.019223,-0.022808,0.067243
23.287667,0.068173,-0.061503,0.086423
23.307717,0.067036,-0.076355,0.066053
23.317727,0.052089,-0.078376,0.052116
23.337777,0.020041,-0.089888,0.024199
23.357827,0.013620,-0.075782,-0.018480
23.367867,0.013633,-0.056433,-0.045094
23.387917,0.014715,-0.024171,-0.093008
23.407967,-0.017237,-0.024138,-0.078141
23.417977,-0.037493,-0.038056,-0.056899
23.438027,-0.051304,-0.044616,-0.015308
23.458077,-0.038349,0.009756,-0.004333
23.468117,-0.028649,0.053551,-0.012644
23.488168,-0.000833,0.098369,-0.024106
23.508218,0.038484,0.063065,-0.038051
23.518227,0.036261,0.026737,-0.032888
23.538308,0.008347,-0.055474,-0.018399
23.548318,0.006119,-0.091787,-0.016440
23.568368,0.003929,-0.122836,0.001566
23.588442,0.004045,-0.093040,0.024140
23.608492,0.034001,-0.037483,-0.001152
23.618532,0.035114,-0.013937,-0.012787
23.638582,-0.011729,0.009751,-0.021351
23.658632,-0.043764,-0.010421,-0.024739
23.668642,-0.051235,-0.018981,-0.016255
23.688692,-0.052263,-0.009401,-0.008735
23.708742,-0.043702,0.021548,-0.020274
23.738832,-0.028685,0.035350,-0.003117
23.738832,-0.028685,0.035350,-0.003117
23.758882,-0.029806,0.009678,0.006373
23.768892,-0.026643,-0.006382,0.012715
23.788942,-0.033103,-0.036319,0.024306
23.798983,-0.052320,-0.052311,0.031654
23.819033,-0.070563,-0.094944,0.026061
23.839083,-0.046029,-0.097245,0.044278
23.859133,-0.002188,-0.056907,0.065954
23.869173,0.024511,-0.037776,0.067186
23.889223,0.043750,-0.016464,0.064136
23.899233,0.030929,-0.021712,0.053393
23.919283,-0.018185,-0.040664,0.029667
23.939333,-0.031086,-0.061814,-0.005719
23.959383,-0.021571,-0.074529,-0.033527
23.969423,-0.012030,-0.085168,-0.048506
23.989473,-0.000433,-0.116045,-0.076393
23.999483,-0.014336,-0.135238,-0.073318
24.019533,-0.046385,-0.162905,-0.072469
24.049623,-0.100786,-0.164738,-0.099334
24.049623,-0.100786,-0.164738,-0.099334
24.069673,-0.086784,-0.131854,-0.061752
24.089724,-0.028017,-0.109891,-0.003802
24.099733,0.012567,-0.102750,0.039073
24.119783,0.063885,-0.080798,0.104479
24.139833,0.058674,-0.043454,0.115324
24.149874,0.035267,-0.025193,0.108936
24.169924,-0.015830,0.003863,0.097182
24.200014,-0.031738,0.052139,0.062115
24.200014,-0.031738,0.052139,0.062115
24.220064,-0.021060,0.069277,0.044066
24.240114,0.002335,0.057519,0.030189
24.260164,0.017137,0.027685,0.005519
24.270174,0.017060,0.008539,-0.010595
24.290224,-0.001181,-0.012559,-0.053473
24.300264,-0.018282,-0.018815,-0.073846
24.320314,-0.075816,-0.016532,-0.065449
24.340364,-0.105526,0.008997,-0.023750
24.350374,-0.100097,0.030207,0.004139
24.370424,-0.066856,0.070398,0.064241
24.390474,-0.040117,0.078632,0.111355
24.410524,-0.060371,0.074401,0.116620
24.420565,-0.079618,0.055271,0.110067
24.440615,-0.087266,-0.007667,0.100135
24.450624,-0.075646,-0.046156,0.101053
24.470674,-0.034295,-0.129630,0.109318
24.490724,0.020904,-0.206665,0.101629
24.500765,0.034685,-0.229096,0.093015
24.520815,0.030357,-0.238572,0.067321
24.540865,0.043144,-0.222448,0.036454
24.560915,0.067650,-0.203113,-0.003978
24.570955,0.063408,-0.187009,-0.018869
24.591022,0.018778,-0.126964,-0.039004
24.601032,-0.008838,-0.090549,-0.042113
24.621082,-0.035281,-0.014619,-0.046100
24.641132,-0.022351,0.036600,-0.045822
24.651172,-0.013782,0.050440,-0.042528
24.671222,-0.003077,0.055644,-0.021110
24.691272,0.001166,0.039535,-0.005151
24.711323,-0.001002,0.021347,0.003303
24.721332,0.005367,0.008481,0.009669
24.741382,0.023430,-0.020488,0.025605
24.751423,0.024482,-0.026909,0.027714
24.771473,0.010587,-0.036435,0.019085
24.801533,-0.021482,-0.064037,0.006047
24.801533,-0.021482,-0.064037,0.006047
24.821583,-0.049152,-0.054381,0.015630
24.841663,-0.053335,-0.028767,0.022149
24.851673,-0.053299,-0.019186,0.028604
24.871723,-0.041487,0.002038,0.049033
24.891773,-0.010538,0.012582,0.056646
24.901813,-0.006264,0.013610,0.062003
24.921863,-0.018012,0.001876,0.067257
24.941913,-0.027653,-0.011941,0.059687
24.951923,-0.026610,-0.011873,0.044735
24.971973,-0.009627,-0.022481,0.018027
24.992023,0.017997,-0.043839,-0.001226
25.012073,0.026432,-0.069431,-0.015210
25.022114,0.010418,-0.076834,-0.019563
25.042164,-0.029042,-0.087396,-0.017585
25.052173,-0.045023,-0.086286,-0.015488
25.072223,-0.063073,-0.067055,-0.004764
25.092273,-0.071423,-0.012649,0.013630
25.102314,-0.067055,0.023632,0.017018
25.122364,-0.027515,0.053330,0.033291
25.132374,-0.001970,0.032890,0.047152
25.152424,0.017072,-0.050744,0.104492
25.172504,0.016927,-0.129998,0.152186
25.192554,0.042444,-0.157893,0.161739
25.202564,0.057375,-0.151509,0.156469
25.222614,0.079812,-0.118364,0.133187
25.242664,0.076654,-0.081852,0.092759
25.252704,0.051088,-0.065654,0.072469
25.272754,-0.011761,-0.031084,0.031867
25.282764,-0.043682,-0.003138,0.015888
25.302814,-0.078732,0.057990,-0.013830
25.322864,-0.071176,0.099676,-0.026431
25.332905,-0.056247,0.106065,-0.032768
25.352955,-0.040268,0.094190,-0.016757
25.373005,-0.033958,0.051351,0.004422
25.383014,-0.035051,0.035280,0.016093
25.403064,-0.025526,0.003145,0.029854
25.423115,-0.018094,-0.010792,0.036218
25.433155,-0.019160,-0.008633,0.031953
25.453205,-0.001088,-0.011774,0.006351
25.483265,0.008403,-0.042725,-0.004452
25.483265,0.008403,-0.042725,-0.004452
25.503345,0.007220,-0.085438,-0.004657
25.523395,0.017761,-0.134653,0.006890
25.543445,0.040068,-0.161419,0.005756
25.553455,0.051784,-0.157125,-0.007009
25.573538,0.041195,-0.115299,-0.036751
25.583578,0.018888,-0.080992,-0.049469
25.603628,-0.023608,-0.015573,-0.078119
25.623679,-0.054401,0.021864,-0.069481
25.633688,-0.054349,0.036780,-0.061933
25.653738,-0.031892,0.056937,-0.048957
25.673788,-0.003104,0.060037,-0.046726
25.693838,0.022361,0.019383,-0.048984
25.703879,0.027593,-0.014798,-0.051268
25.723929,-0.005596,-0.081004,-0.030309
25.733939,-0.022685,-0.104534,-0.011239
25.753989,-0.019453,-0.108962,0.019727
25.774039,0.037062,-0.109232,0.038041
25.784079,0.053061,-0.112553,0.051957
25.804129,0.053110,-0.105169,0.071220
25.824179,0.054165,-0.106215,0.065876
25.844229,0.038130,-0.125401,0.068946
25.854269,0.012545,-0.132839,0.078454
25.874319,-0.009837,-0.134922,0.082655
25.884329,0.011470,-0.137117,0.080567
25.904379,0.062642,-0.134095,0.083928
25.944479,0.068962,-0.140341,0.045460
25.954520,0.047619,-0.140186,0.027242
25.974570,-0.018414,-0.095953,-0.021869
25.984579,-0.038630,-0.066912,-0.051698
26.004629,-0.061962,-0.011187,-0.076067
26.024680,-0.040555,0.007845,-0.050281
26.034720,-0.013906,-0.003027,-0.027826
26.054770,0.033971,-0.062162,0.023301
26.074820,0.046677,-0.107183,0.049828
26.084830,0.055179,-0.116827,0.050874
26.104880,0.070007,-0.145664,0.041165
26.114920,0.071031,-0.160618,0.041097
26.134970,0.073076,-0.188356,0.033494
26.155020,0.046396,-0.190314,0.014183
26.165060,0.021886,-0.184860,0.006663
26.185110,-0.017488,-0.149374,-0.017846
26.205160,-0.049326,-0.088302,-0.037942
26.225211,-0.067257,0.000572,-0.074958
26.235220,-0.081022,0.042342,-0.090822
26.255270,-0.102236,0.092716,-0.114143
26.265311,-0.117124,0.102355,-0.109866
26.285361,-0.138400,0.108761,-0.094939
26.305411,-0.107479,0.093538,-0.058606
26.315420,-0.072311,0.082663,-0.041469
26.335471,-0.010497,0.064156,-0.009339
26.355521,0.018196,0.018010,0.018295
26.365561,0.010676,-0.008710,0.027762
26.385611,-0.011820,-0.054593,0.034960
26.405661,-0.043829,-0.070539,0.041205
26.415671,-0.069370,-0.055494,0.039070
26.435721,-0.130058,-0.018871,0.014506
26.455771,-0.169463,0.003785,-0.006860
26.465811,-0.177968,0.016673,-0.016436
26.485861,-0.141665,0.033581,-0.003437
26.505911,-0.079799,0.026761,0.041566
26.525961,-0.015870,-0.002474,0.082197
26.536002,0.007540,-0.019667,0.088590
26.556052,0.026665,-0.034619,0.075753
26.566061,0.025569,-0.035598,0.057586
26.586134,0.015917,-0.034302,0.015905
26.606184,-0.002256,-0.034071,-0.020463
26.616225,-0.014008,-0.042561,-0.023741
26.636275,-0.026855,-0.069268,-0.013220
26.656325,-0.036496,-0.100318,0.010107
26.666335,-0.048188,-0.096074,0.023981
26.686385,-0.050197,-0.055521,0.031645
26.706435,-0.034117,-0.022473,0.032914
26.716475,-0.030904,-0.018226,0.036148
26.736525,-0.033116,-0.054590,0.048788
26.756575,-0.020465,-0.117745,0.070957
26.766585,-0.002440,-0.155212,0.077239
26.786635,0.031567,-0.194866,0.083554
26.806715,0.048598,-0.198085,0.075040
26.816725,0.043285,-0.186270,0.064399
26.836775,0.017772,-0.146537,0.035675
26.856825,-0.017305,-0.089630,-0.004745
26.866866,-0.027904,-0.062852,-0.014261
26.886916,-0.033120,-0.016873,-0.022604
26.906966,-0.014927,0.009761,-0.021359
26.916975,-0.014912,0.007559,-0.007483
26.937026,-0.002163,-0.020360,0.015921
26.957076,-0.002210,-0.046066,0.031822
26.977126,0.003056,-0.073890,0.040251
26.987166,0.009411,-0.088866,0.041266
27.007216,0.015738,-0.110215,0.034773
27.017226,0.017822,-0.122997,0.026173
27.037276,0.030504,-0.139933,-0.014464
27.057326,0.031490,-0.136455,-0.073197
27.067366,0.025075,-0.130983,-0.096690
27.087416,-0.003747,-0.128592,-0.130941
27.107466,-0.013404,-0.149899,-0.135341
27.127516,-0.004981,-0.188377,-0.134432
27.137557,-0.008185,-0.200195,-0.117405
27.157607,-0.014503,-0.196110,-0.073606
27.167616,-0.004853,-0.185553,-0.054302
27.187666,-0.001469,-0.138756,-0.015615
27.207716,-0.015097,-0.069412,0.009244
27.217757,-0.016086,-0.043799,0.013635
27.237807,-0.051138,-0.017133,0.044643
27.257857,-0.081994,-0.020429,0.085134
27.277907,-0.079857,-0.048460,0.139486
27.287917,-0.076646,-0.059286,0.168285
27.307967,-0.039417,-0.094720,0.183176
27.318007,-0.029876,-0.110750,0.178853
27.338057,-0.058735,-0.131939,0.162650
27.358107,-0.067318,-0.123115,0.109258
27.368117,-0.073712,-0.104782,0.076212
27.388167,-0.094960,-0.042449,0.008082
27.408217,-0.087479,-0.003760,-0.048329
27.418257,-0.078967,-0.003742,-0.057919
27.438307,-0.090743,-0.026161,-0.051649
27.458357,-0.089766,-0.077587,-0.017707
27.468398,-0.085510,-0.094814,0.008929
27.488448,-0.060988,-0.112158,0.046302
27.508498,-0.008694,-0.103931,0.077464
27.518507,0.009456,-0.100857,0.092484
27.538558,0.047845,-0.107510,0.118195
27.548598,0.068075,-0.117208,0.122478
27.568648,0.086106,-0.148226,0.120245
27.588704,0.072114,-0.184374,0.095466
27.608754,0.018720,-0.194643,0.045064
27.618764,-0.033498,-0.180489,0.023623
27.638814,-0.113298,-0.111715,-0.011524
27.658864,-0.093981,-0.048643,-0.037877
27.668904,-0.076827,-0.011316,-0.038722
27.688954,-0.039350,0.047259,-0.029795
27.698964,-0.027582,0.061083,-0.025424
27.719014,-0.028623,0.071781,-0.028581
27.739064,-0.029779,0.047293,-0.043655
27.759114,-0.059709,0.015352,-0.043889
27.769154,-0.075697,0.005712,-0.026888
27.789204,-0.026694,-0.026688,0.015823
27.799245,0.018042,-0.050444,0.040403
27.819295,0.080876,-0.079583,0.061803
27.839345,0.090399,-0.076163,0.009503
27.849355,0.077548,-0.077002,-0.030060
27.869405,0.002837,-0.060270,-0.129531
27.889455,-0.076079,-0.030780,-0.213999
27.899495,-0.117640,-0.025275,-0.220497
27.919545,-0.147397,-0.002827,-0.204450
27.939595,-0.082316,0.002134,-0.168995
27.949605,-0.037552,-0.017401,-0.133713
27.969655,0.014641,-0.061639,-0.073958
27.989705,0.019972,-0.075666,-0.047304
27.999745,0.021040,-0.076753,-0.044102
28.019795,0.015717,-0.070292,-0.051563
28.039845,-0.006589,-0.052146,-0.034448
28.049855,-0.008658,-0.035103,-0.023691
28.069905,0.013836,0.001094,-0.014912
28.089955,0.035197,0.011653,-0.004120
28.099995,0.036254,0.010602,-0.008395
28.120045,0.021300,0.004288,-0.018080
28.140095,-0.021277,0.016103,-0.003187
28.150136,-0.025496,0.031058,-0.000992
28.170186,0.001202,0.042653,0.013024
28.190236,0.018264,0.039338,0.024805
28.200246,0.029929,0.024405,0.013017
28.220296,0.024457,-0.016058,-0.008554
28.240346,0.004210,-0.006310,-0.023519
28.250386,0.005297,0.011932,-0.042657
28.270436,-0.019131,0.061293,-0.075606
28.290486,-0.040423,0.076369,-0.087344
28.300496,-0.042566,0.071027,-0.085239
28.320546,-0.034047,0.059171,-0.068180
28.340596,0.023469,0.048330,-0.073413
28.350636,0.051166,0.046129,-0.078688
28.370686,0.064985,0.038659,-0.089367
28.390736,0.057345,-0.016763,-0.107810
28.400746,0.021042,-0.036905,-0.114415
28.420796,-0.020581,-0.048437,-0.131676
28.440877,-0.007803,-0.049521,-0.136987
28.450886,-0.006728,-0.051706,-0.127381
28.470937,0.011442,-0.047619,-0.100606
28.490987,0.026432,-0.044656,-0.059958
28.501027,0.029638,-0.052233,-0.040757
28.521077,0.016876,-0.058741,-0.010913
28.541127,-0.023526,-0.037377,0.015781
28.561177,-0.002179,-0.020309,0.005239
28.571187,0.010626,-0.011782,-0.000026
28.591254,0.021296,-0.009701,0.004286
28.601294,0.032986,-0.023637,0.007457
28.621344,0.005292,-0.032217,0.034045
28.641394,-0.008510,-0.021569,0.050080
28.651405,-0.004212,-0.008767,0.050153
28.671454,-0.006269,0.014704,0.056668
28.691504,0.008600,-0.002417,0.053423
28.711554,0.002103,-0.045158,0.062817
28.721595,0.000981,-0.064368,0.060586
28.741644,0.017917,-0.100677,0.048711
28.751685,0.009367,-0.110271,0.050778
28.771735,0.014663,-0.118801,0.044343
28.791786,0.010417,-0.110223,0.040099
28.801795,-0.002318,-0.086657,0.033766
28.821845,-0.004376,-0.042718,0.002990
28.841895,-0.034120,-0.007385,0.004144
28.851935,-0.038365,0.000115,0.002031
28.871985,-0.019199,0.000108,-0.009666
28.892035,-0.035220,-0.018046,0.000886
28.902045,-0.028865,-0.034095,0.002964
28.922095,-0.022491,-0.050211,0.018928
28.942145,-0.001110,-0.035405,0.035080
28.952185,0.012787,-0.020499,0.035189
28.972235,0.008588,0.003009,0.035289
28.992285,0.002185,0.009518,0.018211
29.002296,-0.001016,0.012773,0.009672
29.022345,-0.005291,0.009593,0.007508
29.032385,0.007458,-0.003248,0.004278
29.052435,0.029714,-0.050320,0.006253
29.072486,0.015728,-0.103722,0.016644
29.082526,0.010346,-0.119693,0.010145
29.102576,0.009219,-0.132424,-0.007010
29.122626,0.043282,-0.138861,-0.024038
29.132636,0.047559,-0.130301,-0.030395
29.152686,0.042288,-0.115389,-0.018589
29.172736,0.058273,-0.118665,-0.014287
29.182777,0.047629,-0.116519,-0.008965
29.202826,0.015708,-0.099349,-0.004699
29.222876,-0.015101,-0.054320,-0.020595
29.252937,-0.052059,0.077207,-0.030757
29.252937,-0.052059,0.077207,-0.030757
29.272986,-0.039171,0.116709,-0.036944
29.283026,-0.046612,0.114517,-0.019883
29.303076,-0.027506,0.077001,-0.003985
29.323127,-0.018012,0.033114,0.010789
29.333136,-0.027632,0.017076,0.021369
29.353186,-0.018098,-0.006470,0.025556
29.373236,-0.011741,-0.027915,0.039359
29.393287,0.025519,-0.046211,0.043649
29.403327,0.030828,-0.058016,0.052153
29.423377,0.018007,-0.077263,0.065914
29.433417,0.009453,-0.084691,0.061582
29.453467,-0.023604,-0.089913,0.059329
29.473517,-0.023539,-0.061034,0.049852
29.483527,-0.016032,-0.037508,0.038234
29.503577,-0.022274,0.018045,0.038479
29.523627,-0.004133,0.037305,0.018325
29.533668,-0.006307,0.026673,0.009723
29.553717,-0.025591,-0.002033,-0.004353
29.573767,-0.031003,-0.022220,-0.022623
29.583782,-0.038467,-0.021107,-0.026912
29.603832,-0.024550,0.005581,-0.034224
29.623882,-0.018048,0.045079,-0.035088
29.633922,-0.018019,0.056836,-0.037168
29.653972,-0.014848,0.054756,-0.051056
29.674023,-0.018196,0.004614,-0.059848
29.694073,-0.042863,-0.054068,-0.054853
29.704082,-0.058878,-0.069007,-0.046422
29.724132,-0.058808,-0.046606,-0.040975
29.734173,-0.053377,-0.014631,-0.031195
29.754223,-0.013804,0.024658,-0.010604
29.774273,0.003266,0.021318,0.006519
29.784313,-0.010621,0.007460,0.010688
29.804363,-0.033118,-0.030883,0.004035
29.824413,-0.050264,-0.062850,0.000632
29.844463,-0.034320,-0.075692,-0.004726
29.854473,-0.027911,-0.068217,-0.008946
29.874523,-0.007621,-0.054405,-0.007756
29.884563,-0.006522,-0.041588,-0.008760
29.904613,-0.033079,-0.008385,-0.010813
29.924663,-0.058611,0.012014,-0.016128
29.934673,-0.063917,0.011960,-0.001188
29.954723,-0.045728,0.015986,0.038405
29.974773,-0.048819,0.030740,0.082263
29.984814,-0.047697,0.042407,0.098344
30.004864,-0.038040,0.057251,0.114465
30.024914,-0.046473,0.088224,0.119929
30.034923,-0.048580,0.098925,0.116769
30.054973,-0.042176,0.105337,0.111476
30.075054,-0.041139,0.093576,0.113560
30.085064,-0.053930,0.093623,0.112456
30.105114,-0.053962,0.087261,0.102812
30.115154,-0.047595,0.081941,0.094259
30.135204,-0.036985,0.062668,0.097402
30.155254,-0.016834,0.026293,0.097285
30.165264,-0.012616,0.010265,0.096153
30.185314,-0.007384,-0.018530,0.084281
30.205364,-0.001042,-0.030232,0.070356
30.225414,-0.007435,-0.012983,0.040510
30.235454,-0.008494,-0.000074,0.021340
30.255504,-0.011729,0.008673,-0.019219
30.265514,-0.023495,0.000228,-0.032110
30.285564,-0.044916,-0.028456,-0.049397
30.315655,-0.037551,-0.061571,-0.052738
30.315655,-0.037551,-0.061571,-0.052738
30.335705,-0.031159,-0.062659,-0.052725
30.355755,-0.016215,-0.057394,-0.047318
30.365764,-0.008738,-0.055317,-0.039810
30.385845,-0.004403,-0.042632,-0.015169
30.405895,0.007366,-0.043890,0.016904
30.415905,0.008438,-0.051455,0.035031
30.435955,0.006327,-0.061206,0.065957
30.456005,0.006377,-0.045208,0.070306
30.466045,0.002138,-0.037728,0.072466
30.486095,-0.008423,-0.004608,0.076866
30.506145,-0.031775,0.029636,0.078032
30.526195,-0.056179,0.065995,0.084546
30.536205,-0.055094,0.072394,0.085647
30.556255,-0.030616,0.057343,0.089917
30.566295,-0.006176,0.033800,0.083463
30.586369,0.018157,-0.037882,0.093874
30.606419,0.013702,-0.105127,0.089270
30.616428,0.008321,-0.118947,0.079576
30.636478,0.013621,-0.116717,0.056101
30.656528,0.007308,-0.073868,0.032785
30.666569,0.004172,-0.042812,0.016900
30.686619,-0.010653,0.007561,-0.010676
30.706669,-0.054269,0.041912,-0.018111
30.716709,-0.062778,0.052659,-0.026630
30.736759,-0.061704,0.056938,-0.028743
30.756809,-0.032972,0.040825,-0.028740
30.766819,-0.010630,0.022567,-0.022355
30.786869,0.034023,-0.027857,-0.004311
30.806919,0.063724,-0.096448,0.026425
30.826969,0.064695,-0.131698,0.027329
30.837009,0.073179,-0.141286,0.016625
30.857059,0.072090,-0.132593,-0.014315
30.867069,0.069953,-0.130414,-0.021788
30.887119,0.031680,-0.096121,-0.020663
30.907169,0.000933,-0.029744,-0.034321
30.917210,-0.028796,0.019544,-0.048057
30.937260,-0.060596,0.085885,-0.053172
30.957310,-0.039226,0.099648,-0.042366
30.967319,-0.020060,0.091027,-0.039149
30.987369,-0.000951,0.052423,-0.018982
31.007420,0.014926,0.012863,-0.020194
31.017460,0.029759,-0.017067,-0.024567
31.037510,0.038133,-0.068320,-0.032264
31.057560,0.033721,-0.117385,-0.042122
31.067600,0.023016,-0.132282,-0.046495
31.087650,-0.000430,-0.125747,-0.057211
31.107700,-0.027963,-0.059436,-0.059110
31.117710,-0.033170,-0.015638,-0.057849
31.137760,-0.017027,0.038754,-0.053274
31.157810,-0.012777,0.018313,-0.024518
31.167850,-0.021352,-0.015975,0.005206
31.187900,-0.028898,-0.077081,0.059375
31.207951,-0.001180,-0.086888,0.081838
31.217960,0.014813,-0.083726,0.079761
31.238010,0.022292,-0.064422,0.057440
31.258060,-0.011783,-0.039632,0.032895
31.268101,-0.028809,-0.023502,0.021173
31.288151,-0.045820,0.014123,-0.019288
31.308201,-0.002189,0.010959,-0.057638
31.318211,0.025422,-0.023284,-0.061996
31.338261,0.056028,-0.133381,-0.062432
31.358311,0.041940,-0.217697,-0.063939
31.368351,0.035450,-0.247538,-0.072643
31.388401,0.038540,-0.276291,-0.091999
31.408451,0.070503,-0.276360,-0.099388
31.428501,0.102521,-0.255059,-0.108813
31.438541,0.098309,-0.230433,-0.119390
31.458591,0.037679,-0.173524,-0.142789
31.468601,-0.003825,-0.141270,-0.159843
31.488651,-0.058049,-0.084417,-0.175747
31.498692,-0.064361,-0.053422,-0.176686
31.518742,-0.018398,-0.001212,-0.182721
31.538792,0.030648,0.000724,-0.174031
31.548801,0.043416,-0.008944,-0.170836
31.568851,0.025242,-0.025946,-0.176308
31.588910,-0.005704,-0.044036,-0.169002
31.598951,-0.006781,-0.052617,-0.160500
31.619001,0.028446,-0.045367,-0.136867
31.639051,0.074357,-0.031769,-0.107834
31.649061,0.072294,-0.015824,-0.090673
31.669111,0.073452,0.015122,-0.086251
31.689161,0.052124,0.015227,-0.093787
31.699201,0.024396,0.007831,-0.091762
31.719251,-0.023621,-0.027381,-0.065356
31.749341,0.011513,-0.069388,-0.014183
31.749341,0.011513,-0.069388,-0.014183
31.769391,0.070143,-0.079311,0.011569
31.789441,0.095740,-0.070830,0.007407
31.799451,0.096814,-0.059011,-0.008557
31.819501,0.057370,-0.040541,-0.048103
31.839551,-0.008690,-0.030694,-0.052512
31.849592,-0.019332,-0.030710,-0.041859
31.869642,0.003083,-0.036274,-0.009777
31.889692,-0.015012,-0.039521,0.011522
31.899701,-0.021376,-0.040674,0.033931
31.919752,-0.013785,-0.020645,0.084253
31.939802,0.034242,-0.015623,0.118592
31.949842,0.055557,-0.017844,0.121845
31.969892,0.055467,-0.042335,0.106774
31.989942,0.044633,-0.085909,0.069151
31.999952,0.016858,-0.101772,0.055112
32.020002,-0.035396,-0.098277,0.029347
32.050092,0.001997,-0.030820,-0.033255
32.050092,0.001997,-0.030820,-0.033255
32.070142,-0.008457,0.055823,-0.055306
32.090192,-0.033855,0.122118,-0.055063
32.110242,-0.027387,0.130483,-0.021891
32.120283,-0.002903,0.106798,0.001565
32.140333,0.049150,0.018841,0.047226
32.150342,0.057595,-0.029406,0.081204
32.170392,0.070247,-0.111956,0.139601
32.190442,0.073329,-0.153610,0.138344
32.200483,0.069066,-0.142826,0.119155
32.220533,0.042482,-0.097689,0.077635
32.240583,0.019141,-0.037627,0.039399
32.260633,-0.016985,0.005228,0.035229
32.270643,-0.027573,0.028737,0.039584
32.290693,-0.014663,0.064939,0.053677
32.300733,-0.006085,0.077676,0.064443
32.320783,0.025910,0.077506,0.078418
32.350873,0.021497,0.030597,0.064297
32.350873,0.021497,0.030597,0.064297
32.370923,-0.022310,0.005230,0.038419
32.390973,-0.034054,-0.007592,0.047940
32.400983,-0.011665,-0.010919,0.058668
32.421033,0.059758,-0.011197,0.068478
32.441083,0.095932,-0.033736,0.067403
32.451124,0.088422,-0.047560,0.059839
32.471174,0.054230,-0.061180,0.027634
32.511274,0.020225,-0.019374,0.018124
32.521284,0.039457,-0.001277,0.017194
32.541334,0.064103,0.039159,0.031341
32.551374,0.071594,0.044424,0.042068
32.571424,0.068409,0.037930,0.062325
32.591501,0.034324,0.040131,0.071855
32.601511,0.017286,0.045526,0.071833
32.621561,0.005597,0.064843,0.060142
32.641611,0.018401,0.079838,0.042089
32.651651,0.020531,0.079837,0.041027
32.671701,0.033248,0.056326,0.035609
32.691751,0.034166,-0.000303,0.040685
32.701791,0.007461,-0.025877,0.046900
32.721842,-0.039539,-0.069560,0.057245
32.741892,-0.044814,-0.058940,0.073304
32.751901,-0.027682,-0.036624,0.085207
32.771951,0.024646,-0.002656,0.092990
32.792001,0.024609,-0.017617,0.095056
32.802042,0.003269,-0.025013,0.092825
32.822092,-0.035169,-0.046211,0.085141
32.842142,-0.030911,-0.039747,0.070229
32.852152,-0.012774,-0.025862,0.057526
32.872202,0.034124,-0.009864,0.029958
32.892252,0.028732,-0.027961,0.021311
32.902292,0.004201,-0.033211,0.019082
32.922342,-0.040557,-0.027695,0.012575
32.942392,-0.064960,0.017278,0.004175
32.952402,-0.060614,0.053624,-0.006323
32.972452,-0.037056,0.105983,-0.028443
32.982492,-0.043419,0.112365,-0.018816
33.002542,-0.050879,0.099463,0.004603
33.022592,-0.018999,0.057644,0.018380
33.032633,-0.021167,0.037300,0.031096
33.052683,-0.019127,-0.006583,0.050122
33.072733,0.013824,-0.043035,0.057518
33.092783,0.017020,-0.053811,0.075636
33.102792,0.014922,-0.044218,0.081016
33.122842,0.025621,-0.026068,0.074722
33.132883,0.032007,-0.026063,0.069399
33.152933,0.029805,-0.043067,0.053289
33.182993,-0.046902,-0.028909,0.047803
33.182993,-0.046902,-0.028909,0.047803
33.203043,-0.071290,0.030018,0.024514
33.223093,-0.075397,0.089861,0.019445
33.233133,-0.078515,0.117627,0.021704
33.253183,-0.074137,0.159262,0.021913
33.273233,-0.081592,0.161422,0.021902
33.283243,-0.088026,0.146487,0.022882
33.303293,-0.077512,0.082276,0.043972
33.323343,-0.028694,-0.009862,0.072513
33.333383,-0.008523,-0.045225,0.084151
33.353433,0.025473,-0.076230,0.068075
33.373483,0.033912,-0.088906,0.032788
33.383524,0.025341,-0.094121,0.012443
33.403574,0.001830,-0.098155,-0.021824
33.423624,-0.023735,-0.090576,-0.026131
33.433634,-0.022640,-0.079900,-0.026078
33.453684,0.012538,-0.074650,-0.031297
33.483774,0.015635,-0.107736,-0.037854
33.483774,0.015635,-0.107736,-0.037854
33.503824,0.003795,-0.152571,-0.033826
33.523874,0.002702,-0.164330,-0.030680
33.543924,-0.012057,-0.106628,-0.027243
33.553934,-0.011928,-0.059639,-0.027020
33.573984,-0.027617,0.040727,-0.011634
33.584054,-0.037090,0.081314,-0.006127
33.604104,-0.047622,0.115421,0.015369
33.644204,-0.021027,0.051937,0.097395
33.654245,-0.005083,0.030476,0.108020
33.674295,0.023584,-0.017745,0.122826
33.684304,0.025669,-0.035917,0.124882
33.704354,0.023450,-0.066870,0.122593
33.724404,0.011664,-0.086024,0.116061
33.734445,0.018041,-0.085989,0.104328
33.754495,0.034058,-0.052743,0.063937
33.774545,0.045762,-0.032252,0.013861
33.784555,0.037194,-0.038556,-0.002216
33.804605,-0.001245,-0.051136,-0.025882
33.824655,-0.022543,-0.026347,-0.058939
33.834695,-0.024616,0.003638,-0.074826
33.854745,-0.009596,0.054981,-0.102315
33.874795,-0.010625,0.067795,-0.101189
33.884805,-0.022358,0.060322,-0.093779
33.904855,-0.025616,0.028208,-0.075781
33.924905,0.013729,-0.016879,-0.053453
33.934945,0.028621,-0.036226,-0.037480
33.954995,0.042450,-0.064194,-0.004459
33.965005,0.042448,-0.068496,0.001930
33.985086,0.017965,-0.058820,0.005112
34.005136,-0.005443,-0.049173,0.013639
34.015145,-0.016078,-0.043824,0.018976
34.035195,-0.024567,-0.040684,0.038195
34.055246,-0.025578,-0.037623,0.069185
34.085336,-0.010521,-0.004708,0.099292
34.085336,-0.010521,-0.004708,0.099292
34.105386,0.003363,-0.003766,0.116427
34.115396,0.017202,-0.009145,0.115371
34.135446,0.042741,-0.019872,0.107914
34.155496,0.059694,-0.040082,0.079023
34.165536,0.051119,-0.046360,0.057606
34.185586,0.016943,-0.041720,0.003054
34.205636,-0.032065,-0.000686,-0.058844
34.225686,-0.045813,0.069038,-0.114099
34.235696,-0.045765,0.094739,-0.128932
34.255746,-0.034000,0.115037,-0.138418
34.265786,-0.027632,0.103254,-0.135251
34.285836,-0.035224,0.045524,-0.117385
34.305886,-0.038592,-0.032561,-0.088922
34.315927,-0.025871,-0.065779,-0.074089
34.335977,-0.020558,-0.092677,-0.035746
34.356027,0.009358,-0.085465,-0.000378
34.376077,0.005207,-0.062109,0.031767
34.386087,-0.008590,-0.047169,0.043550
34.406137,-0.021311,-0.027955,0.054288
34.416177,-0.014907,-0.026928,0.058583
34.436227,0.014900,-0.045225,0.068193
34.456277,0.031936,-0.051688,0.068209
34.466287,0.031926,-0.050580,0.059669
34.486337,0.028694,-0.048307,0.032965
34.506387,0.018010,-0.039572,-0.000137
34.526437,0.011616,-0.015855,-0.042771
34.536477,0.009477,-0.006130,-0.065164
34.556527,-0.012893,0.011141,-0.088645
34.566537,-0.016108,0.010129,-0.098272
34.586609,-0.032127,-0.000488,-0.100503
34.606659,-0.038541,-0.025182,-0.068591
34.616699,-0.023629,-0.035975,-0.054714
34.636749,0.023249,-0.057618,-0.026914
34.656800,0.007326,-0.056690,0.013639
34.676850,0.010557,-0.051422,0.026491
34.686890,0.002054,-0.048236,0.036097
34.706940,-0.006365,-0.016231,0.049043
34.716950,0.000083,0.005122,0.045958
34.737000,0.007624,0.037161,0.040789
34.757050,-0.004088,0.042549,0.038646
34.767090,-0.010508,0.031875,0.041782
34.787140,-0.015897,0.011617,0.038467
34.807190,-0.022322,0.009578,0.022416
34.817200,-0.030843,0.016054,0.013877
34.837250,-0.028689,0.033209,-0.002059
34.857300,-0.032929,0.041767,-0.002030
34.867340,-0.045695,0.046044,0.005433
34.887390,-0.040351,0.048133,0.011867
34.907440,-0.038243,0.034197,0.021420
34.917450,-0.043569,0.026663,0.037393
34.937500,-0.012769,-0.010795,0.033028
34.957581,-0.017130,-0.042788,0.026456
34.967591,-0.033146,-0.053416,0.026361
34.987641,-0.035350,-0.065029,-0.000405
35.007691,-0.040676,-0.058559,-0.010003
35.017731,-0.044927,-0.054273,-0.009995
35.037781,-0.017241,-0.058595,-0.018484
35.057831,-0.010894,-0.077853,-0.015353
35.067841,-0.006632,-0.074633,-0.021736
35.087891,0.024210,-0.084218,-0.048401
35.107941,0.011365,-0.105545,-0.046401
35.117981,-0.006766,-0.112987,-0.041145
35.138031,-0.024849,-0.100113,-0.041134
35.158081,-0.049205,-0.046673,-0.033471
35.168091,-0.048052,-0.016789,-0.030122
35.188141,-0.012762,0.012882,-0.005315
35.208191,0.006459,0.004084,0.035288
35.218231,0.007515,-0.005581,0.045928
35.238281,-0.021277,-0.017291,0.057543
35.258332,-0.036172,-0.009782,0.060742
35.268341,-0.025502,-0.002316,0.055466
35.288422,0.006519,0.012511,0.059897
35.308472,0.026740,0.008229,0.048182
35.318482,0.017125,0.005102,0.038527
35.338532,0.010616,-0.017137,0.003153
35.358582,-0.005482,-0.033969,-0.039700
35.368622,-0.023637,-0.039179,-0.054730
35.388672,-0.016241,-0.043308,-0.089980
35.398682,-0.018389,-0.044329,-0.098536
35.418732,-0.047133,-0.045414,-0.075120
35.448822,-0.017242,-0.041356,-0.050449
35.448822,-0.017242,-0.041356,-0.050449
35.468872,-0.010745,-0.015848,-0.028946
35.488922,0.005265,-0.011663,-0.021405
35.498932,0.005249,-0.024539,-0.008647
35.518982,0.017934,-0.079187,0.021039
35.539032,0.031671,-0.130563,0.035789
35.549072,0.034866,-0.129490,0.032598
35.569123,0.024277,-0.085509,-0.001406
35.589172,0.014785,-0.029778,-0.036419
35.599181,0.023323,-0.011530,-0.061946
35.619262,-0.008625,0.011112,-0.085428
35.639312,-0.054449,0.020938,-0.099395
35.649322,-0.053406,0.013469,-0.101564
35.669372,-0.056583,0.008028,-0.078098
35.689422,-0.018189,0.002438,-0.051313
35.699462,0.013749,-0.016945,-0.039566
35.719512,-0.002235,-0.040600,0.005143
35.739562,0.004126,-0.064211,0.025345
35.749572,0.016893,-0.071723,0.024276
35.769622,0.019021,-0.074949,0.027472
35.789672,0.017938,-0.071661,0.010393
35.809722,0.003059,-0.046969,-0.006623
35.819762,-0.009686,-0.027679,-0.011908
35.839812,-0.041539,0.020517,-0.019246
35.849822,-0.044681,0.041896,-0.021290
35.869872,-0.022261,0.060013,-0.028619
35.889922,-0.026539,0.048224,-0.016937
35.899963,-0.012753,0.025778,-0.022346
35.920013,-0.006512,-0.021151,-0.039642
35.940063,-0.036452,-0.059524,-0.034565
35.950103,-0.046042,-0.058425,-0.034586
35.970153,-0.034230,-0.025347,-0.036534
35.990203,-0.010688,0.000131,-0.020325
36.000213,-0.012794,-0.001021,-0.001108
36.020263,-0.002174,-0.030022,0.026557
36.040313,-0.004350,-0.050341,0.033933
36.050353,-0.004363,-0.053529,0.030713
36.070403,0.000938,-0.056690,0.017894
36.090453,0.003063,-0.055598,0.011496
36.100463,-0.003320,-0.052384,0.013630
36.120513,0.005187,-0.058814,0.012555
36.140563,0.039227,-0.072722,-0.005577
36.150603,0.042394,-0.078021,-0.016275
36.170654,-0.006668,-0.077751,-0.039910
36.190704,-0.047120,-0.046533,-0.064443
36.200713,-0.057717,-0.019760,-0.072892
36.220763,-0.087368,0.044362,-0.061988
36.240813,-0.066977,0.074011,-0.022267
36.260894,-0.036049,0.054461,0.025795
36.270904,-0.028614,0.031893,0.050278
36.290954,-0.003173,-0.039923,0.088464
36.300994,0.003172,-0.060255,0.092658
36.321044,0.019064,-0.094475,0.091472
36.341094,0.017965,-0.104063,0.087151
36.351104,0.011592,-0.093337,0.081843
36.371154,-0.002170,-0.042958,0.052133
36.391204,-0.010617,-0.005482,0.037332
36.411254,-0.030817,0.013816,0.035231
36.421294,-0.030829,0.014930,0.025623
36.441344,-0.036175,0.019310,0.006401
36.451354,-0.038324,0.019373,-0.005355
36.471404,-0.053301,0.007750,-0.021475
36.481445,-0.058627,0.008835,-0.021485
36.501495,-0.046885,0.018434,-0.026748
36.521545,-0.035126,0.024747,-0.014935
36.541595,-0.028729,0.015024,0.004265
36.551604,-0.029788,0.012851,0.012797
36.571654,-0.003194,-0.002156,0.006390
36.591749,-0.005379,-0.022445,0.007356
36.601759,-0.004346,-0.032039,0.003041
36.621809,0.020050,-0.069451,-0.006682
36.651899,0.015693,-0.097147,-0.018576
36.651899,0.015693,-0.097147,-0.018576
36.671949,0.025202,-0.109842,-0.050656
36.691999,-0.033383,-0.097909,-0.049693
36.702009,-0.051454,-0.077534,-0.054988
36.722059,-0.038498,-0.018855,-0.051470
36.742109,-0.004310,0.000161,-0.030989
36.752149,0.003156,-0.007420,-0.013913
36.772199,-0.019264,-0.040620,0.021119
36.792250,-0.015056,-0.074929,0.046605
36.802259,-0.002273,-0.081414,0.054087
36.822309,0.010554,-0.081572,0.078691
36.832350,0.007406,-0.069870,0.090488
36.852400,0.037273,-0.058194,0.085285
36.882460,0.004177,-0.053603,0.040350
36.882460,0.004177,-0.053603,0.040350
36.902540,-0.039509,-0.022258,-0.008760
36.922590,-0.066138,0.005787,-0.049293
36.952650,-0.065002,0.031414,-0.049169
36.952650,-0.065002,0.031414,-0.049169
36.972700,-0.033046,0.027059,-0.053374
36.982740,-0.036243,0.024913,-0.049120
37.002790,-0.033112,0.000335,-0.048160
37.022840,-0.024685,-0.036002,-0.048308
37.032850,-0.020472,-0.059556,-0.038794
37.052900,-0.010947,-0.098154,-0.013313
37.072950,0.018885,-0.105757,-0.006857
37.082991,0.030610,-0.103644,-0.010020
37.103041,0.033842,-0.085454,-0.019539
37.123091,0.014691,-0.070415,-0.024861
37.133100,0.000850,-0.065031,-0.024874
37.153150,-0.018273,-0.052234,-0.007775
37.173200,0.004163,-0.034167,-0.004423
37.183241,0.025490,-0.028887,-0.006475
37.203291,0.027641,-0.010643,-0.026679
37.223341,0.010566,0.002410,-0.065120
37.243391,-0.012953,0.003792,-0.115385
37.253431,-0.026841,-0.000369,-0.129330
37.273481,-0.041813,-0.016319,-0.133719
37.283491,-0.036512,-0.029172,-0.129493
37.303541,-0.002482,-0.062439,-0.118874
37.323591,0.008109,-0.101041,-0.093390
37.333631,-0.004688,-0.116056,-0.071064
37.353681,-0.012109,-0.119388,-0.039054
37.373731,0.000765,-0.099230,-0.019695
37.383741,-0.010898,-0.088613,0.001687
37.403791,-0.036310,-0.054589,0.050916
37.423841,-0.008443,-0.008855,0.071505
37.433882,0.004394,0.006034,0.075884
37.453932,-0.006225,0.005948,0.101491
37.473982,0.010737,-0.036911,0.119495
37.483991,0.031982,-0.058298,0.110907
37.504042,0.060621,-0.082731,0.063869
37.524092,0.039253,-0.073881,0.013646
37.544142,-0.002310,-0.041440,-0.042931
37.554182,-0.015093,-0.022029,-0.073853
37.574232,-0.041647,0.016549,-0.083357
37.584286,-0.044775,0.034653,-0.070462
37.604336,-0.006305,0.057906,-0.045677
37.624386,0.034205,0.049125,-0.023174
37.634396,0.024603,0.039494,-0.012564
37.654446,0.018127,0.005301,-0.004198
37.674496,0.016935,-0.040616,-0.004418
37.684536,0.013680,-0.070584,0.011454
37.704587,0.028522,-0.118856,0.046518
37.724637,0.067947,-0.131880,0.063657
37.734646,0.082865,-0.128690,0.056236
37.754696,0.054087,-0.123206,0.045500
37.784787,-0.001332,-0.104719,0.013388
37.784787,-0.001332,-0.104719,0.013388
37.804837,-0.028954,-0.069362,0.008138
37.824887,-0.038416,-0.021269,0.007271
37.834897,-0.031962,0.004376,-0.000068
37.854947,-0.034000,0.043941,-0.009500
37.864987,-0.037184,0.049296,-0.010552
37.885037,-0.027628,0.032143,-0.003129
37.905087,-0.021298,-0.003221,0.018086
37.925137,-0.019162,-0.014013,0.040473
37.935177,-0.018051,-0.000154,0.044814
37.955227,0.008656,0.024337,0.041799
37.965237,-0.000880,0.042503,0.046132
37.985287,-0.015713,0.069204,0.055831
38.015378,-0.015722,0.064922,0.057947
38.015378,-0.015722,0.064922,0.057947
38.035428,-0.039246,0.032925,0.065208
38.055478,-0.056372,0.005204,0.067166
38.065487,-0.059577,0.003084,0.066079
38.085537,-0.058485,0.009463,0.071453
38.105588,-0.033975,0.000774,0.085367
38.115628,-0.007395,-0.020651,0.081066
38.135678,0.019068,-0.084793,0.076563
38.155728,0.028450,-0.144481,0.045328
38.165738,0.038992,-0.167848,0.011064
38.185788,0.032433,-0.188852,-0.059555
38.205868,0.024890,-0.196106,-0.101271
38.235928,0.071677,-0.235772,-0.101329
38.235928,0.071677,-0.235772,-0.101329
38.255978,0.111130,-0.259657,-0.045786
38.266018,0.117559,-0.256555,-0.028662
38.286068,0.078326,-0.195667,-0.004982
38.306119,0.000818,-0.074622,-0.029193
38.316128,-0.059727,0.015408,-0.055639
38.336178,-0.127531,0.186695,-0.096677
38.356228,-0.107075,0.277540,-0.125032
38.366269,-0.110250,0.287172,-0.127132
38.386319,-0.157149,0.260408,-0.081455
38.406369,-0.156134,0.214246,-0.031464
38.416379,-0.136976,0.186261,0.001571
38.436429,-0.091262,0.106762,0.069687
38.456479,-0.073261,0.046752,0.100431
38.466519,-0.070112,0.035045,0.089702
38.486569,-0.063749,0.056671,0.028934
38.506619,-0.060537,0.098624,-0.037088
38.516629,-0.062723,0.093418,-0.063824
38.536709,-0.077817,0.035843,-0.073752
38.556759,-0.108904,-0.034585,-0.064557
38.566769,-0.117486,-0.055926,-0.062546
38.586862,-0.063182,-0.063477,-0.083796
38.606912,-0.003537,-0.060315,-0.115662
38.616953,0.002822,-0.069917,-0.122099
38.637003,0.004811,-0.126564,-0.113816
38.657053,0.000426,-0.177872,-0.101252
38.667062,-0.005957,-0.177886,-0.093793
38.687112,0.005892,-0.136311,-0.086086
38.707162,0.042294,-0.073395,-0.091028
38.717203,0.044507,-0.042422,-0.093012
38.737253,0.022197,-0.014568,-0.096147
38.757303,-0.039587,-0.008005,-0.086673
38.767313,-0.057702,-0.009035,-0.082455
38.787363,-0.056547,0.015453,-0.067381
38.807413,0.023404,0.012987,-0.052216
38.817453,0.052156,-0.003186,-0.039395
38.837503,-0.002213,-0.026666,-0.005473
38.857553,-0.057563,-0.015938,0.022198
38.867593,-0.071366,-0.002056,0.031839
38.887643,-0.063776,0.036290,0.048065
38.907694,0.000176,0.031760,0.058902
38.917703,0.020403,0.015609,0.072769
38.937753,0.008634,-0.008986,0.087575
38.957803,-0.025517,-0.017348,0.072486
38.967844,-0.037278,-0.017193,0.047885
38.987894,-0.041592,-0.012710,0.006234
39.007944,-0.028855,-0.026590,-0.003410
39.017954,-0.022467,-0.035204,0.007249
39.038004,-0.009640,-0.034289,0.030789
39.058054,-0.011717,-0.020450,0.041531
39.068094,-0.022348,-0.014038,0.047941
39.088144,-0.030819,0.001973,0.055471
39.098154,-0.005248,0.001915,0.050201
39.118204,0.029848,-0.010888,0.023532
39.148294,-0.001263,-0.059694,-0.022718
39.148294,-0.001263,-0.059694,-0.022718
39.168344,-0.042917,-0.087290,-0.030442
39.188394,-0.071618,-0.069123,-0.013344
39.208444,0.011602,-0.044896,0.000888
39.218485,0.025507,-0.031093,0.008469
39.238535,0.018114,-0.000044,-0.003155
39.258585,-0.012803,0.009779,-0.026694
39.278635,-0.026745,-0.013599,-0.041799
39.288644,-0.061901,-0.018921,-0.021625
39.308694,-0.082084,-0.016911,0.018921
39.318735,-0.047962,-0.013844,0.024371
39.338785,0.024481,-0.017212,0.009600
39.358835,0.033924,-0.055552,-0.019397
39.368845,0.032731,-0.089616,-0.041994
39.388895,0.007996,-0.153465,-0.073342
39.398935,-0.019752,-0.169414,-0.069222
39.418985,-0.077129,-0.121312,-0.039243
39.439035,-0.048993,0.026984,-0.026713
39.449045,-0.010415,0.106984,-0.032637
39.469095,0.052626,0.175218,-0.051368
39.489145,0.029002,0.123072,-0.074113
39.499185,0.005372,0.058015,-0.076622
39.519235,0.009236,-0.091544,-0.069841
39.539285,0.044128,-0.214652,-0.031872
39.549326,0.035572,-0.243615,0.001082
39.569376,0.019742,-0.212821,0.049254
39.599438,0.075555,-0.063431,0.037296
39.599438,0.075555,-0.063431,0.037296
39.619488,0.038403,-0.004543,0.031063
39.639539,-0.027664,-0.001135,0.033033
39.649579,-0.056431,-0.003228,0.043626
39.669629,-0.070218,0.007375,0.069275
39.689679,-0.021126,0.012394,0.103617
39.699689,0.004466,0.007963,0.119690
39.719739,0.024690,-0.011412,0.137814
39.749829,-0.014764,-0.002604,0.108905
39.749829,-0.014764,-0.002604,0.108905
39.769879,-0.043487,0.046873,0.054580
39.789929,-0.067891,0.108006,0.016346
39.799939,-0.060387,0.130464,0.004723
39.820020,-0.024160,0.133611,-0.007980
39.840070,0.006631,0.091872,-0.010229
39.850079,0.009733,0.058771,-0.013582
39.870129,-0.011741,0.011942,-0.033091
39.900220,0.016892,-0.009242,-0.089727
39.900220,0.016892,-0.009242,-0.089727
39.920270,-0.018237,0.007975,-0.092947
39.940320,-0.012859,0.029346,-0.099241
39.950330,-0.009654,0.032545,-0.100285
39.970380,-0.025547,0.046303,-0.062876
39.990430,0.025572,0.029024,-0.057476
40.000470,0.042580,0.008643,-0.050047
40.020520,0.031775,-0.060875,-0.021564
40.040570,0.032626,-0.148529,-0.004885
40.050580,0.027261,-0.164556,0.000365
40.070630,0.019813,-0.154875,-0.009224
40.090680,0.017753,-0.128165,-0.010171
40.110730,-0.002364,-0.092974,0.014509
40.120770,0.011554,-0.074904,0.023178
40.140820,0.035112,-0.046248,0.044743
40.150861,0.030928,-0.022785,0.054457
40.170911,0.025747,0.038165,0.041912
40.190961,0.002420,0.118649,-0.024001
40.200970,-0.029507,0.149845,-0.049579
40.221020,-0.076397,0.160752,-0.065680
40.241071,-0.043456,0.121101,-0.059367
40.251111,-0.032815,0.107118,-0.045517
40.271161,0.012914,0.070659,-0.045563
40.291211,0.029800,0.016195,-0.057525
40.301221,0.014805,-0.007220,-0.064086
40.321271,0.009327,-0.056282,-0.073947
40.341321,0.010323,-0.090535,-0.058083
40.351361,0.016727,-0.090586,-0.051657
40.371411,0.022166,-0.052173,-0.048255
40.391461,0.020168,-0.014885,-0.027788
40.401471,0.035114,-0.012859,-0.014919
40.421521,0.069206,-0.030162,0.007526
40.441571,0.065968,-0.058029,0.030886
40.451611,0.063777,-0.082610,0.036105
40.471661,0.051987,-0.111447,0.044481
40.491711,0.049959,-0.061141,0.022281
40.501752,0.057518,-0.013002,0.000097
40.521802,0.050300,0.091821,-0.029337
40.541852,0.048254,0.123871,-0.030259
40.551862,0.039695,0.110000,-0.027143
40.571912,0.015068,0.051192,0.004557
40.581952,0.041637,0.023339,0.004498
40.602022,0.102246,-0.027041,0.002291
40.622072,0.093518,-0.100700,0.001919
40.652132,0.033738,-0.114207,-0.036766
40.652132,0.033738,-0.114207,-0.036766
40.672182,0.026405,-0.048877,-0.070660
40.682222,0.039249,-0.018931,-0.088643
40.702272,0.044684,0.036731,-0.119343
40.722322,0.029763,0.056169,-0.154543
40.732332,0.016925,0.045592,-0.167447
40.752382,-0.026886,-0.007769,-0.145388
40.772432,-0.020513,-0.042191,-0.097464
40.802522,0.023401,0.021616,-0.070335
40.802522,0.023401,0.021616,-0.070335
40.822572,0.018208,0.065368,-0.059460
40.832613,0.009704,0.070710,-0.054118
40.852663,0.017108,0.036396,-0.029691
40.872713,0.036194,-0.027990,0.022400
40.882723,0.047908,-0.044153,0.044789
40.902773,0.092730,-0.030481,0.058864
40.922823,0.108794,0.008003,0.039862
40.952913,0.101366,0.035930,0.011132
40.952913,0.101366,0.035930,0.011132
40.972963,0.097027,0.018948,-0.008188
40.982973,0.085276,0.008302,-0.007203
41.003023,0.101185,-0.020589,-0.006227
41.023073,0.116095,-0.025987,-0.004075
41.033113,0.109745,-0.012104,0.000246
41.053163,0.110960,0.036972,0.010096
41.073213,0.150517,0.083853,0.006154
41.103273,0.247696,0.143256,0.024863
41.103273,0.247696,0.143256,0.024863
41.123354,0.296766,0.158037,0.027205
41.133363,0.301038,0.154764,0.038952
41.153414,0.239125,0.142347,-0.002939
41.173464,0.191094,0.142725,-0.050071
41.183504,0.172965,0.158975,-0.086363
41.203554,0.141067,0.237473,-0.177947
41.223604,0.108166,0.322240,-0.239593
41.253664,0.031630,0.439268,-0.318299
41.253664,0.031630,0.439268,-0.318299
41.273714,-0.088658,0.516752,-0.360993
41.283754,-0.177088,0.540640,-0.383557
41.303804,-0.685800,0.426986,-0.391910
41.333864,-0.285623,0.231418,-0.412025
41.333864,-0.285623,0.231418,-0.412025
41.353914,-0.155762,0.186279,-0.440721
41.373964,-0.100321,0.177419,-0.411768
41.384004,-0.130115,0.176286,-0.377673
41.404054,-0.169353,0.240424,-0.363592
41.424104,-0.202334,0.294206,-0.422180
41.434114,-0.241882,0.272069,-0.456577
41.454195,-0.249769,0.130176,-0.481839
41.474245,-0.284079,0.046912,-0.466304
41.484255,-0.303194,0.044601,-0.416162
41.504305,-0.224035,0.132836,-0.384548
41.524355,0.005132,0.133104,-0.372163
41.534395,0.027411,0.075186,-0.334988
41.554445,-0.034720,-0.059344,-0.299476
41.574495,-0.126662,-0.184181,-0.260797
41.584520,-0.163052,-0.252522,-0.237720
41.604570,-0.201812,-0.425665,-0.183100
41.624620,-0.223488,-0.609735,-0.087891
41.634660,-0.209672,-0.663515,-0.016537
41.654710,-0.125173,-0.629195,0.120590
41.674760,-0.188439,-0.438324,0.226003
41.684770,-0.217910,-0.325219,0.267049
41.704820,-0.013981,-0.191301,0.263973
41.724870,0.099298,-0.047209,0.204080
41.734910,0.101484,-0.006453,0.165823
41.754961,0.014930,-0.021620,0.044804
41.765001,-0.031163,-0.080961,-0.021833
41.785051,-0.141424,-0.201872,-0.123122
41.805101,-0.173716,-0.264316,-0.220714
41.815111,-0.172750,-0.275854,-0.265631
41.835161,-0.275110,-0.253839,-0.334176
41.855211,-0.354013,-0.229775,-0.400509
41.865251,-0.351894,-0.220049,-0.426094
41.885301,-0.303973,-0.207152,-0.476107
41.905351,-0.197454,-0.211613,-0.508948
41.925401,-0.067491,-0.268924,-0.447972
41.935411,-0.007815,-0.312179,-0.375373
41.955461,0.076417,-0.394430,-0.203547
41.965501,0.115893,-0.420542,-0.128786
41.985551,0.123567,-0.391079,-0.041032
42.015611,0.037392,-0.253406,-0.188033
42.015611,0.037392,-0.253406,-0.188033
42.035661,-0.049899,-0.125264,-0.351105
42.055711,-0.188219,0.009097,-0.439513
42.075761,-0.291326,0.090428,-0.404162
42.085802,-0.307158,0.114764,-0.345339
42.105852,-0.292984,0.150335,-0.198786
42.115892,-0.259842,0.148826,-0.128200
42.135942,-0.138376,0.069906,-0.008597
42.166002,0.003038,-0.115842,0.104145
42.166002,0.003038,-0.115842,0.104145
42.186052,-0.014178,-0.180981,0.114472
42.206102,-0.053744,-0.210598,0.081108
42.216142,-0.067634,-0.205057,0.047981
42.236192,-0.076140,-0.165237,-0.010606
42.256242,-0.064308,-0.110680,-0.038089
42.266252,-0.065279,-0.076508,-0.036862
42.286302,-0.073604,-0.018948,-0.007771
42.316392,-0.107538,-0.016150,0.101107
42.316392,-0.107538,-0.016150,0.101107
42.336442,-0.107464,-0.037928,0.189666
42.356492,-0.073332,-0.060744,0.248404
42.386552,-0.014920,-0.102290,0.186412
42.386552,-0.014920,-0.102290,0.186412
42.406602,-0.024599,-0.098752,0.122309
42.416643,-0.040583,-0.080398,0.091374
42.436693,-0.069295,-0.014797,0.014693
42.456743,-0.097912,0.089280,-0.068214
42.466783,-0.093568,0.135329,-0.097894
42.486833,-0.069000,0.179242,-0.141415
42.506883,-0.076465,0.204056,-0.189388
42.516893,-0.094553,0.223409,-0.204301
42.536943,-0.110554,0.232120,-0.228873
42.556993,-0.092547,0.206563,-0.256718
42.567033,-0.084096,0.189539,-0.276003
42.587102,-0.075769,0.136282,-0.311483
42.607152,-0.094133,0.057406,-0.331135
42.617162,-0.112339,0.027578,-0.334531
42.637212,-0.154962,0.030920,-0.334633
42.657262,-0.151610,0.085359,-0.331161
42.667303,-0.134494,0.102339,-0.320352
42.687353,-0.098166,0.100855,-0.257234
42.707403,-0.069292,0.100453,-0.191995
42.717412,-0.060741,0.098193,-0.171686
42.737462,-0.067077,0.110953,-0.155620
42.757543,-0.077788,0.094999,-0.162134
42.767553,-0.076788,0.069351,-0.159048
42.787603,-0.066227,0.024382,-0.142140
42.807653,-0.036390,0.012452,-0.123954
42.817693,-0.021449,0.013416,-0.112158
42.837743,-0.017185,-0.007066,-0.074856
42.857793,-0.048099,-0.028491,-0.039792
42.867803,-0.076863,-0.032745,-0.023868
42.887853,-0.134386,-0.026191,-0.015450
42.907903,-0.148309,-0.032397,-0.048633
42.917943,-0.148363,-0.037610,-0.075363
42.937993,-0.138857,-0.038446,-0.130888
42.958043,-0.129320,-0.036149,-0.171443
42.968053,-0.118670,-0.034002,-0.181017
42.988103,-0.073973,-0.055481,-0.186336
43.008153,-0.043170,-0.096183,-0.182171
43.018194,-0.027231,-0.115473,-0.179013
43.038244,-0.014456,-0.128395,-0.165152
43.058294,0.012182,-0.125227,-0.175746
43.068303,0.046264,-0.126340,-0.189544
43.088384,0.070739,-0.141381,-0.187411
43.108434,0.056896,-0.140298,-0.181035
43.118444,0.062221,-0.134915,-0.193813
43.138494,0.068583,-0.114367,-0.252450
43.158544,-0.005899,-0.033727,-0.316367
43.168584,-0.059066,0.026382,-0.344003
43.188634,-0.151567,0.113231,-0.353462
43.208684,-0.162096,0.119319,-0.278687
43.218694,-0.136468,0.108309,-0.226326
43.238744,-0.071327,0.102307,-0.131103
43.248784,-0.039306,0.098823,-0.093644
43.268834,-0.008336,0.082369,-0.023134
43.288885,-0.033878,0.068332,0.026935
43.298894,-0.065835,0.078077,0.020483
43.318944,-0.148833,0.137169,0.002374
43.338994,-0.244533,0.241267,-0.039058
43.359044,-0.272212,0.266031,-0.062519
43.369085,-0.261611,0.240326,-0.054065
43.389135,-0.217119,0.135473,-0.043756
43.399175,-0.189569,0.075569,-0.041827
43.419225,-0.142963,-0.027080,-0.047525
43.449285,-0.100523,-0.071853,-0.093552
43.449285,-0.100523,-0.071853,-0.093552
43.469335,-0.077047,-0.034319,-0.142448
43.489385,-0.054615,0.010694,-0.191311
43.509435,-0.076942,0.039676,-0.207258
43.519475,-0.095031,0.048258,-0.202995
43.539525,-0.134403,0.066501,-0.194472
43.549535,-0.139692,0.073933,-0.181633
43.569585,-0.130025,0.082283,-0.147384
43.589666,-0.105478,0.088560,-0.136604
43.599707,-0.088444,0.086410,-0.145113
43.619757,-0.066163,0.058647,-0.161206
43.639807,-0.054572,0.010557,-0.162469
43.649816,-0.050335,-0.005531,-0.150783
43.669866,-0.041778,-0.016431,-0.110219
43.689917,-0.024649,0.001588,-0.092995
43.699957,-0.005426,0.025101,-0.109922
43.720007,0.055369,0.068926,-0.159753
43.750097,0.030919,0.122665,-0.215113
43.750097,0.030919,0.122665,-0.215113
43.770147,-0.071466,0.099519,-0.218711
43.790197,-0.150365,0.083710,-0.209389
43.800207,-0.162030,0.093259,-0.188012
43.820257,-0.110549,0.189019,-0.147893
43.840307,0.012363,0.301710,-0.123520
43.850347,0.064578,0.304799,-0.135111
43.870397,0.088669,0.164943,-0.161343
43.900457,-0.062285,-0.093109,-0.141617
43.900457,-0.062285,-0.093109,-0.141617
43.920507,-0.138317,-0.218833,-0.152036
43.940557,-0.140428,-0.202731,-0.167988
43.950598,-0.108256,-0.121597,-0.183539
43.970648,-0.013939,0.080023,-0.200484
43.990698,0.036583,0.247621,-0.219848
44.000708,0.051597,0.284980,-0.226039
44.020758,-0.014504,0.284188,-0.239044
44.050848,-0.163282,0.093849,-0.311926
44.050848,-0.163282,0.093849,-0.311926
44.070898,-0.187100,-0.028780,-0.335004
44.090948,-0.170023,-0.040760,-0.297626
44.100988,-0.142177,-0.008964,-0.265352
44.121038,-0.036318,0.088705,-0.214392
44.141088,0.041683,0.154613,-0.203182
44.151098,0.052328,0.155697,-0.213830
44.171148,0.015870,0.086495,-0.234554
44.201239,-0.100805,-0.087118,-0.252789
44.201239,-0.100805,-0.087118,-0.252789
44.221289,-0.114891,-0.154206,-0.284124
44.241339,-0.096786,-0.138064,-0.322453
44.251348,-0.081840,-0.116648,-0.344743
44.271398,-0.011580,-0.111228,-0.409684
44.291448,0.036230,-0.143224,-0.451363
44.301489,0.040453,-0.156038,-0.454617
44.321539,-0.008635,-0.179383,-0.452727
44.341589,-0.057823,-0.254115,-0.424374
44.351599,-0.054696,-0.292682,-0.401048
44.371679,-0.015283,-0.314285,-0.376472
44.391729,0.028612,-0.234262,-0.390927
44.411779,0.031146,-0.080427,-0.403011
44.421789,-0.012269,0.009305,-0.378137
44.441839,-0.158883,0.145111,-0.314876
44.451879,-0.230200,0.170907,-0.301064
44.471929,-0.307036,0.131613,-0.295053
44.481939,-0.319937,0.077069,-0.269710
44.501989,-0.271216,-0.082627,-0.182737
44.522039,-0.089307,-0.240482,-0.124229
44.532080,0.012919,-0.281462,-0.110254
44.552130,0.146133,-0.284015,-0.113102
44.582189,0.114394,-0.154313,-0.192692
44.582189,0.114394,-0.154313,-0.192692
44.602256,-0.032582,-0.058293,-0.297329
44.622306,-0.230803,0.022010,-0.431024
44.642356,-0.360961,0.044388,-0.557327
44.652396,-0.405802,0.038318,-0.598072
44.672446,-0.452773,0.015011,-0.605789
44.682456,-0.443204,-0.002183,-0.589821
44.702536,-0.383621,-0.067763,-0.538692
44.722586,-0.281496,-0.190290,-0.443919
44.732596,-0.230392,-0.244146,-0.382076
44.752646,-0.142864,-0.262083,-0.262279
44.772696,-0.070121,-0.194229,-0.207278
44.792746,-0.003951,-0.141948,-0.242099
44.802787,0.023664,-0.153583,-0.284806
44.822837,0.067996,-0.263315,-0.371728
44.832846,0.080531,-0.327185,-0.424338
44.852896,0.071693,-0.408036,-0.484565
44.882987,0.034546,-0.334081,-0.515296
44.882987,0.034546,-0.334081,-0.515296
44.903037,0.027372,-0.221859,-0.528671
44.923087,-0.019145,-0.085022,-0.526016
44.943137,-0.108336,0.068246,-0.581085
44.953147,-0.144486,0.130567,-0.636437
44.973197,-0.225505,0.178284,-0.734711
44.983237,-0.258630,0.163582,-0.764782
45.003287,-0.275980,0.060089,-0.773865
45.033377,-0.208144,-0.200707,-0.549518
45.033377,-0.208144,-0.200707,-0.549518
45.053427,-0.089898,-0.331251,-0.351121
45.073477,0.026327,-0.366268,-0.252690
45.093527,0.063917,-0.287585,-0.205213
45.103537,0.035332,-0.221311,-0.198569
45.123587,-0.078444,-0.098974,-0.245306
45.133628,-0.143404,-0.053692,-0.291204
45.153678,-0.275542,-0.015627,-0.345868
45.183737,-0.299061,-0.035791,-0.356711
45.183737,-0.299061,-0.035791,-0.356711
45.203787,-0.212712,-0.055522,-0.308496
45.223838,-0.131628,-0.052819,-0.258053
45.243888,-0.095252,-0.010285,-0.243865
45.253928,-0.101584,0.016464,-0.250165
45.273978,-0.158008,0.085389,-0.333315
45.283988,-0.183624,0.103901,-0.390982
45.304038,-0.238120,0.092674,-0.463824
45.334128,-0.229878,-0.034639,-0.421675
45.334128,-0.229878,-0.034639,-0.421675
45.354178,-0.125566,-0.123956,-0.350239
45.374228,-0.024272,-0.148123,-0.277435
45.394278,0.025890,-0.123729,-0.276113
45.404318,0.034412,-0.107586,-0.308059
45.424369,-0.005080,-0.087886,-0.381782
45.434378,-0.057306,-0.070472,-0.414959
45.454428,-0.171357,-0.036677,-0.482411
45.484519,-0.212900,0.007551,-0.547478
45.484519,-0.212900,0.007551,-0.547478
45.504569,-0.185137,0.023455,-0.541985
45.524619,-0.160591,0.018962,-0.512028
45.544669,-0.144601,-0.014494,-0.449118
45.554679,-0.130742,-0.040402,-0.400064
45.574729,-0.075294,-0.091296,-0.290126
45.584769,-0.030522,-0.113013,-0.245240
45.604828,0.037777,-0.113512,-0.186302
45.634888,0.004934,-0.060166,-0.153026
45.634888,0.004934,-0.060166,-0.153026
45.654938,-0.055770,-0.035340,-0.166963
45.664978,-0.101567,-0.019137,-0.174490
45.685028,-0.186750,0.025052,-0.201222
45.715119,-0.206896,0.073260,-0.219209
45.715119,-0.206896,0.073260,-0.219209
45.735169,-0.174824,0.096544,-0.196578
45.755219,-0.147057,0.113511,-0.190011
45.765229,-0.148117,0.122113,-0.201724
45.785278,-0.178013,0.132075,-0.255170
45.805328,-0.207955,0.128178,-0.314023
45.815369,-0.208041,0.115525,-0.348266
45.835420,-0.190164,0.059139,-0.406167
45.855469,-0.149956,-0.043478,-0.414019
45.865479,-0.124501,-0.097028,-0.399247
45.885529,-0.055344,-0.175511,-0.336402
45.905580,-0.003072,-0.194144,-0.271185
45.925629,0.067293,-0.208447,-0.230466
45.935669,0.084367,-0.209647,-0.214401
45.955719,-0.005048,-0.176316,-0.200604
45.965729,-0.063577,-0.139786,-0.207002
45.985779,-0.183682,-0.001480,-0.238726
46.015869,-0.251544,0.162448,-0.304368
46.015869,-0.251544,0.162448,-0.304368
46.035919,-0.233400,0.154767,-0.273376
46.055969,-0.168436,0.104085,-0.214684
46.066010,-0.124782,0.072842,-0.186938
46.086061,-0.047090,0.012618,-0.151757
46.106110,-0.018429,-0.023734,-0.162532
46.116120,-0.015298,-0.037537,-0.181816
46.136170,-0.053772,-0.044619,-0.238571
46.156221,-0.103907,-0.008775,-0.331475
46.166260,-0.134816,0.020413,-0.384833
46.186310,-0.206223,0.055112,-0.446823
46.206360,-0.233998,0.030629,-0.444879
46.226411,-0.185088,-0.045641,-0.384216
46.236420,-0.152054,-0.081279,-0.323405
46.256470,-0.084808,-0.116288,-0.193063
46.266510,-0.048486,-0.105903,-0.155526
46.286560,-0.022668,-0.035645,-0.125212
46.316650,-0.115098,0.097297,-0.170772
46.316650,-0.115098,0.097297,-0.170772
46.336701,-0.172685,0.113751,-0.223196
46.356751,-0.200520,0.072222,-0.229878
46.376801,-0.176062,0.036769,-0.202205
46.386810,-0.137706,0.029144,-0.196794
46.406860,-0.070522,0.040653,-0.192281
46.416901,-0.051318,0.053456,-0.202850
46.436952,-0.041780,0.070830,-0.270038
46.467011,-0.145419,0.055820,-0.412468
46.467011,-0.145419,0.055820,-0.412468
46.487061,-0.193572,0.008112,-0.453419
46.507112,-0.167045,-0.032536,-0.457811
46.527161,-0.128582,-0.020033,-0.418122
46.537201,-0.108236,-0.002090,-0.387002
46.557251,-0.058028,0.009231,-0.331263
46.567261,-0.044176,-0.001574,-0.314184
46.587311,-0.072957,-0.015470,-0.291897
46.617420,-0.171958,0.040490,-0.314338
46.617420,-0.171958,0.040490,-0.314338
46.637470,-0.171973,0.050233,-0.342066
46.657520,-0.163473,0.015819,-0.297340
46.677570,-0.143247,-0.033720,-0.223812
46.687611,-0.133646,-0.046708,-0.193937
46.707661,-0.112200,-0.015949,-0.163822
46.717670,-0.119533,0.027835,-0.158294
46.737721,-0.153436,0.107018,-0.167627
46.767811,-0.210960,0.126503,-0.183717
46.767811,-0.210960,0.126503,-0.183717
46.787861,-0.207895,0.081670,-0.190330
46.807911,-0.193072,0.039922,-0.179805
46.827961,-0.167510,0.032353,-0.177633
46.837971,-0.148317,0.040880,-0.187154
46.858021,-0.099301,0.057990,-0.225393
46.868061,-0.084415,0.056975,-0.246721
46.888111,-0.087750,0.038030,-0.303435
46.908161,-0.117761,-0.013042,-0.322988
46.918171,-0.116754,-0.033326,-0.325217
46.938221,-0.070934,-0.043142,-0.313387
46.958271,-0.016503,-0.032786,-0.282209
46.968311,-0.003671,-0.026496,-0.266121
46.988361,-0.005682,-0.007484,-0.220103
47.008411,-0.027879,0.041557,-0.186818
47.018452,-0.039504,0.075753,-0.183484
47.038502,-0.102238,0.133656,-0.189792
47.058552,-0.176803,0.165010,-0.219760
47.068562,-0.200268,0.170527,-0.241163
47.088612,-0.221580,0.161967,-0.223103
47.108662,-0.211924,0.147729,-0.154778
47.118702,-0.188443,0.143239,-0.124824
47.138752,-0.157474,0.139712,-0.077754
47.148762,-0.156412,0.131105,-0.064973
47.168812,-0.148036,0.087388,-0.085453
47.188862,-0.137510,0.045760,-0.097371
47.208912,-0.113034,0.045797,-0.121872
47.218952,-0.108716,0.070386,-0.130290
47.239002,-0.111729,0.159221,-0.169402
47.249012,-0.116995,0.193508,-0.189550
47.269062,-0.131875,0.217127,-0.205503
47.299152,-0.181043,0.168182,-0.210143
47.299152,-0.181043,0.168182,-0.210143
47.319202,-0.197129,0.135154,-0.215685
47.339253,-0.199318,0.110568,-0.209398
47.359303,-0.175862,0.101847,-0.188010
47.369343,-0.166244,0.099579,-0.166630
47.389393,-0.134284,0.083360,-0.146322
47.399403,-0.130062,0.064088,-0.138924
47.419453,-0.128043,0.017042,-0.128459
47.449543,-0.106940,-0.053450,-0.141553
47.449543,-0.106940,-0.053450,-0.141553
47.469593,-0.103760,-0.068487,-0.125592
47.489643,-0.099456,-0.063243,-0.108464
47.509693,-0.116375,-0.005443,-0.124260
47.519703,-0.134413,0.036371,-0.146545
47.539753,-0.183360,0.082598,-0.177439
47.549793,-0.187654,0.066552,-0.168982
47.569843,-0.166461,0.001162,-0.131845
47.589896,-0.133543,-0.063193,-0.095739
47.599906,-0.133582,-0.085690,-0.080891
47.619987,-0.124059,-0.116742,-0.070329
47.640037,-0.097439,-0.128596,-0.066039
47.660087,-0.055888,-0.139455,-0.056361
47.670097,-0.036715,-0.147024,-0.049935
47.690147,0.011184,-0.180376,-0.030732
47.700187,0.032439,-0.210413,-0.016929
47.720237,0.070652,-0.281142,0.008479
47.740287,0.044911,-0.336561,0.001737
47.750297,0.008611,-0.357787,-0.001669
47.770347,-0.072506,-0.402397,0.002169
47.790397,-0.063023,-0.454868,0.025448
47.810447,0.010722,-0.383581,0.031330
47.820487,0.052500,-0.293904,0.009437
47.840537,0.080551,-0.133491,-0.055956
47.850547,0.067818,-0.091618,-0.094249
47.870597,-0.031401,-0.092055,-0.159686
47.890647,-0.125458,-0.163079,-0.207283
47.900687,-0.137241,-0.181166,-0.213811
47.920737,-0.075425,-0.174903,-0.225361
47.940787,-0.013524,-0.161368,-0.194147
47.950828,0.002515,-0.152967,-0.174835
47.970878,0.021796,-0.136100,-0.141588
47.990928,0.017577,-0.126530,-0.129804
48.000938,0.009016,-0.142552,-0.123494
48.020988,-0.025203,-0.201329,-0.091820
48.041038,-0.059386,-0.247290,-0.060086
48.051078,-0.065802,-0.261208,-0.048419
48.071128,-0.097682,-0.234472,-0.034494
48.091178,-0.114661,-0.206641,-0.036545
48.111228,-0.104055,-0.229132,-0.030213
48.121238,-0.084903,-0.246327,-0.020628
48.141288,-0.049597,-0.203779,-0.008579
48.151328,-0.023892,-0.153635,-0.015748
48.171378,0.014597,-0.088428,-0.054857
48.191428,0.024056,-0.100966,-0.120051
48.201438,0.010051,-0.142459,-0.143787
48.221488,-0.028632,-0.243671,-0.168941
48.241538,-0.084297,-0.321359,-0.188691
48.251579,-0.139822,-0.353166,-0.199677
48.271629,-0.209264,-0.400891,-0.222527
48.291679,-0.206045,-0.385890,-0.235266
48.301719,-0.179331,-0.354956,-0.245727
48.321769,-0.129005,-0.266450,-0.251579
48.341819,-0.105276,-0.169391,-0.241440
48.351829,-0.110491,-0.135265,-0.227407
48.371879,-0.104990,-0.094894,-0.186608
48.391929,-0.087704,-0.022436,-0.163785
48.401969,-0.081218,0.008493,-0.159348
48.422019,-0.086555,0.007457,-0.162572
48.442069,-0.111191,-0.043779,-0.151133
48.452079,-0.126168,-0.070485,-0.139550
48.472129,-0.147550,-0.115451,-0.101366
48.482169,-0.154982,-0.113361,-0.086422
48.502219,-0.134631,-0.094356,-0.054229
48.522269,-0.081232,-0.072255,-0.021931
48.542319,-0.022646,-0.092807,-0.006911
48.572379,-0.063371,-0.192144,0.024553
48.582420,-0.082587,-0.207063,0.030839
48.602488,-0.099609,-0.196334,0.031911
48.622538,-0.088922,-0.184611,0.029859
48.642588,-0.061171,-0.166516,0.023612
48.652628,-0.048380,-0.165484,0.022584
48.672678,-0.026003,-0.169849,0.026898
48.682688,-0.022787,-0.162379,0.025874
48.702738,-0.057860,-0.132413,0.036601
48.732828,-0.149399,-0.089408,0.038688
48.732828,-0.149399,-0.089408,0.038688
48.752878,-0.174913,-0.077679,0.060037
48.772928,-0.171631,-0.061802,0.087895
48.792978,-0.134260,-0.045981,0.104096
48.802988,-0.119344,-0.050321,0.108390
48.823038,-0.122604,-0.079195,0.118926
48.833078,-0.140774,-0.104827,0.131573
48.853128,-0.173905,-0.155059,0.162222
48.883188,-0.108819,-0.156576,0.212601
48.883188,-0.108819,-0.156576,0.212601
48.903238,-0.030884,-0.105543,0.207717
48.923319,-0.007357,-0.070322,0.196198
48.943369,-0.025494,-0.061588,0.168416
48.953379,-0.036200,-0.072172,0.155518
48.973429,-0.082180,-0.120019,0.142346
48.983469,-0.111004,-0.135935,0.140054
49.003519,-0.149334,-0.119776,0.136820
49.043619,-0.056238,0.031710,0.107884
49.053629,-0.035882,0.073319,0.102796
49.073679,0.021708,0.093483,0.090232
49.083719,0.035499,0.069944,0.090159
49.103769,0.044891,-0.011321,0.104755
49.123819,0.047853,-0.094609,0.100097
49.133829,0.043491,-0.125520,0.090325
49.153879,0.023130,-0.136953,0.037872
49.183970,0.032707,-0.076614,-0.081456
49.183970,0.032707,-0.076614,-0.081456
49.204020,0.031679,-0.034718,-0.132535
49.224070,-0.006724,-0.035560,-0.154010
49.234110,-0.030203,-0.050465,-0.147736
49.254160,-0.086741,-0.079207,-0.128800
49.274210,-0.104894,-0.105968,-0.103340
49.284220,-0.086804,-0.128559,-0.080964
49.304270,-0.034562,-0.142789,-0.043500
49.334360,-0.001332,-0.100412,0.005931
49.334360,-0.001332,-0.100412,0.005931
49.354410,0.005229,-0.047097,0.019019
49.374460,-0.011754,-0.021412,0.019094
49.384470,-0.022399,-0.019261,0.023348
49.404520,-0.020240,-0.022588,0.047907
49.424570,0.025645,-0.016451,0.073700
49.434610,0.053394,-0.006965,0.081299
49.454660,0.082222,0.008935,0.086795
49.474711,0.065181,0.013262,0.086768
49.484720,0.043843,0.011246,0.076018
49.504770,-0.010574,0.000844,0.054454
49.524820,-0.012791,-0.012880,0.022336
49.534861,-0.011733,-0.009629,0.011672
49.554911,-0.003186,0.011823,-0.013840
49.574961,0.026695,0.030995,-0.023280
49.585001,0.034157,0.030965,-0.022192
49.605093,0.055339,-0.013921,-0.029823
49.625143,0.058323,-0.084354,-0.042966
49.635153,0.058226,-0.115284,-0.051659
49.655203,0.041085,-0.138647,-0.067840
49.665243,0.043217,-0.130039,-0.082748
49.685293,0.060347,-0.086173,-0.111335
49.705343,0.049788,-0.041210,-0.127175
49.715353,0.027468,-0.012247,-0.138850
49.735403,-0.026787,0.026390,-0.142022
49.755453,-0.055530,0.024221,-0.115406
49.775503,-0.078928,0.014448,-0.065311
49.785544,-0.073569,0.006793,-0.031149
49.805594,-0.071380,-0.003088,0.024357
49.815603,-0.051113,-0.008595,0.045751
49.835653,-0.023256,0.013473,0.102548
49.855703,0.007856,0.065509,0.143472
49.865744,0.040933,0.076056,0.148955
49.885794,0.064339,0.063185,0.144686
49.905844,0.018345,0.013227,0.126162
49.925894,-0.019165,-0.040934,0.087347
49.935934,-0.021372,-0.059001,0.070164
49.955984,-0.001184,-0.072874,0.054131
49.965994,0.014805,-0.066467,0.043523
49.986044,0.044722,-0.031252,0.028818
50.006094,0.042660,0.000848,0.017213
50.016134,0.043706,-0.002323,0.009724
50.036184,0.024472,-0.012875,-0.004266
50.056234,0.002079,-0.001996,-0.030982
50.086294,0.024452,0.010888,-0.060769
50.106344,0.039344,-0.001996,-0.056516
50.116385,0.055289,-0.020228,-0.051217
50.136435,0.069070,-0.053429,-0.040654
50.156485,0.073289,-0.068384,-0.042849
50.166494,0.059433,-0.069417,-0.040756
50.186545,0.034938,-0.062930,-0.040793
50.206595,0.017962,-0.030801,-0.048166
50.216635,0.012696,-0.007284,-0.049137
50.236685,0.012836,0.042898,-0.046763
50.256735,0.028917,0.069479,-0.032706
50.266775,0.025744,0.070491,-0.018823
50.286825,0.010805,0.052284,0.002414
50.306875,0.007483,-0.002251,0.019238
50.316885,-0.000044,-0.036487,0.037215
50.336935,-0.008630,-0.071817,0.061593
50.356985,0.019103,-0.070900,0.074492
50.367025,0.037229,-0.070984,0.079883
50.387076,0.059581,-0.084965,0.085220
50.407126,0.040363,-0.095567,0.081912
50.417135,0.015841,-0.095462,0.076504
50.437185,-0.038473,-0.069564,0.057248
50.457235,-0.061795,-0.007406,0.027568
50.467276,-0.064891,0.038601,0.011754
50.487326,-0.052964,0.123020,-0.007042
50.507376,-0.033671,0.162471,-0.006802
50.517386,-0.023003,0.163479,-0.001427
50.537466,-0.028397,0.132466,0.011230
50.557516,-0.021111,0.076980,-0.003967
50.567526,-0.016961,0.041775,-0.014804
50.587576,0.003047,-0.036158,-0.034345
50.607625,0.028487,-0.075658,-0.054758
50.617665,0.036992,-0.079927,-0.061164
